Temp;Press;Alt;AccX;AccY;AccZ;GyrX;GyrY;GyrZ;MagX;MagY;MagZ;Yaw;Pitch;Roll;GpsLat;GpsLong;GpsAlt;GpsSpeed;SIV
47,928;907,857;-1,358;0,030;0,916;-0,052;0,250;-0,125;-0,250;-35,875;-46,188;79,500;2,313;1,687;-93,375;38402182;33704746;920;0,169;12
47,945;908,129;-1,368;0,028;0,919;-0,056;0,000;0,000;0,062;-35,500;-45,063;80,375;2,313;1,687;-93,375;38402183;33704746;920;0,169;12
47,945;908,011;-1,372;0,029;0,917;-0,050;-0,062;0,062;0,125;-35,875;-45,500;79,500;2,313;1,687;-93,375;38402183;33704746;920;0,169;12
47,928;907,975;-1,375;0,029;0,918;-0,052;0,125;-0,062;-0,062;-35,500;-46,188;79,875;2,313;1,687;-93,375;38402183;33704746;920;0,169;12
47,928;907,857;-1,370;0,029;0,919;-0,050;-0,062;-0,062;-0,125;-36,250;-45,750;79,875;2,313;1,687;-93,375;38402183;33704746;920;0,052;12
47,928;907,857;-1,366;0,024;0,917;-0,054;0,125;-0,062;0,125;-35,063;-45,063;79,500;2,313;1,687;-93,375;38402183;33704746;920;0,004;12
47,928;907,975;-1,368;0,028;0,918;-0,050;-0,062;-0,062;0,062;-36,563;-45,750;79,500;2,313;1,687;-93,375;38402182;33704746;920;0,146;12
47,928;907,975;-1,371;0,030;0,918;-0,051;0,125;0,187;-0,187;-36,250;-44,750;80,750;2,313;1,687;-93,375;38402182;33704746;920;0,146;12
47,928;907,975;-1,373;0,029;0,917;-0,051;0,125;0,187;0,000;-35,875;-45,063;79,500;2,313;1,687;-93,375;38402182;33704746;920;0,146;12
47,928;907,975;-1,375;0,029;0,916;-0,051;0,000;0,062;-0,187;-35,500;-45,500;78,563;2,313;1,687;-93,375;38402182;33704746;920;0,146;12
47,945;907,892;-1,373;0,029;0,916;-0,051;0,312;-0,187;-0,062;-35,875;-44,750;80,375;2,313;1,687;-93,375;38402183;33704746;920;0,146;12
47,945;907,892;-1,370;0,025;0,917;-0,052;0,187;0,062;-0,062;-35,500;-45,063;79,875;2,313;1,687;-93,375;38402182;33704746;920;0,146;12
47,945;908,011;-1,374;0,030;0,916;-0,050;-0,125;0,000;-0,187;-36,250;-45,750;79,875;2,313;1,687;-93,375;38402183;33704746;920;0,115;12
47,928;907,975;-1,376;0,032;0,916;-0,050;0,000;0,000;-0,125;-35,875;-45,063;80,375;2,313;1,687;-93,375;38402182;33704746;920;0,115;12
47,928;907,857;-1,372;0,029;0,919;-0,050;-0,187;0,000;0,125;-36,250;-45,063;80,375;2,313;1,687;-93,375;38402183;33704746;920;0,115;12
47,928;907,857;-1,368;0,029;0,919;-0,053;0,062;-0,187;0,000;-35,500;-45,750;80,375;2,313;1,687;-93,375;38402183;33704746;920;0,115;12
47,928;907,857;-1,364;0,029;0,918;-0,052;0,062;0,062;0,062;-36,250;-45,063;79,062;2,313;1,687;-93,375;38402183;33704746;920;0,063;12
47,928;907,975;-1,366;0,025;0,916;-0,050;0,000;0,125;-0,062;-35,875;-45,500;80,375;2,313;1,687;-93,375;38402183;33704746;920;0,130;12
47,928;907,857;-1,362;0,028;0,915;-0,050;-0,062;-0,062;0,000;-36,250;-45,750;80,750;2,313;1,687;-93,375;38402183;33704746;920;0,130;12
47,928;907,975;-1,365;0,031;0,916;-0,050;0,000;0,312;-0,250;-35,500;-44,750;81,250;2,313;1,687;-93,375;38402183;33704746;920;0,061;12
47,928;907,975;-1,367;0,031;0,917;-0,053;-0,062;0,125;-0,187;-36,250;-45,063;78,563;2,313;1,687;-93,375;38402183;33704746;920;0,061;12
47,945;907,892;-1,365;0,027;0,920;-0,051;0,000;0,062;0,000;-35,500;-45,750;79,500;2,313;1,687;-93,375;38402183;33704746;920;0,061;12
47,928;907,857;-1,361;0,028;0,916;-0,050;0,000;0,062;-0,125;-36,250;-45,063;80,375;2,313;1,687;-93,375;38402183;33704746;920;0,061;12
47,928;907,857;-1,357;0,030;0,916;-0,053;-0,062;0,062;0,062;-36,250;-45,500;79,875;2,313;1,687;-93,375;38402183;33704746;920;0,100;12
47,945;908,011;-1,361;0,031;0,915;-0,050;-0,125;0,312;0,125;-35,500;-45,750;79,062;2,313;1,687;-93,375;38402183;33704746;920;0,096;12
47,928;907,975;-1,363;0,029;0,916;-0,056;-0,062;-0,187;0,187;-35,500;-45,750;79,875;2,313;1,687;-93,375;38402183;33704745;920;0,200;12
47,928;907,857;-1,359;0,029;0,916;-0,054;-0,187;0,000;0,062;-36,563;-45,500;79,500;2,313;1,687;-93,375;38402183;33704745;920;0,056;12
47,945;908,011;-1,363;0,029;0,918;-0,052;0,000;0,000;0,000;-36,250;-46,188;79,500;2,313;1,687;-93,375;38402183;33704745;920;0,056;12
47,928;907,975;-1,365;0,030;0,919;-0,051;0,000;-0,125;0,062;-36,250;-45,063;80,750;2,313;1,687;-93,375;38402183;33704745;920;0,057;12
47,928;907,857;-1,361;0,029;0,917;-0,051;-0,187;0,187;-0,062;-35,875;-45,750;79,875;2,313;1,687;-93,375;38402183;33704745;920;0,031;12
47,945;908,011;-1,365;0,033;0,916;-0,055;0,000;0,562;0,125;-35,875;-46,188;79,875;2,313;1,687;-93,375;38402183;33704745;920;0,031;12
47,928;907,975;-1,367;0,030;0,918;-0,052;-0,125;-0,062;0,062;-35,500;-45,500;79,500;2,313;1,687;-93,375;38402183;33704745;920;0,031;12
47,945;907,774;-1,359;-0,006;2,506;0,265;0,437;-1,000;0,312;-35,500;-45,750;79,062;2,313;1,687;-93,375;38402183;33704745;920;0,130;12
47,945;907,774;-1,350;0,063;3,999;-0,170;-0,375;-10,188;-0,812;-36,250;-45,750;80,375;2,750;1,625;-93,375;38402183;33704745;920;0,130;12
47,928;907,502;-1,328;0,029;3,999;-0,023;-2,063;-16,437;-1,875;-23,687;-19,250;38,875;4,000;1,437;-93,313;38402183;33704745;920;0,102;12
47,928;907,620;-1,311;0,011;3,999;-0,156;-1,125;25,312;-0,687;-15,250;-9,063;69,750;3,813;1,375;-93,063;38402183;33704745;920;0,050;12
47,945;907,300;-1,276;-0,069;3,999;0,037;-3,063;26,562;-0,812;-15,062;-16,187;82,688;1,500;1,437;-92,938;38402183;33704745;920;0,076;12
47,928;907,028;-1,223;0,057;3,999;0,047;-1,375;58,313;4,125;-20,062;-16,250;59,250;358,750;1,687;-92,562;38402183;33704745;920;0,080;12
47,928;906,791;-1,153;0,061;3,999;0,092;-0,125;27,750;1,312;-0,250;-35,563;66,500;355,125;1,875;-92,500;38402183;33704745;920;0,104;12
47,928;906,436;-1,051;0,096;3,999;0,077;-2,438;25,062;2,563;-2,000;-16,375;53,750;352,563;2,188;-92,250;38402183;33704745;920;0,059;12
47,928;906,199;-0,920;0,065;3,999;0,107;-7,000;21,000;3,063;-4,687;-15,563;46,875;350,250;2,500;-91,750;38402183;33704745;920;0,059;12
47,928;905,962;-0,750;0,057;3,999;0,094;-12,313;16,937;2,000;-7,562;-15,875;42,250;348,375;2,750;-90,813;38402183;33704745;920;0,059;12
47,928;905,370;-0,493;0,059;3,999;0,060;-14,938;12,063;0,750;-11,250;-17,187;38,250;347,062;2,938;-89,563;38402183;33704745;920;0,059;12
47,928;904,777;-0,112;0,066;3,999;0,033;-15,938;4,812;-0,312;-12,063;-17,187;37,563;346,375;2,875;-88,125;38402183;33704745;920;0,059;12
47,911;904,150;0,459;0,064;3,999;-0,008;-15,125;-2,375;-0,062;-13,187;-19,000;35,188;346,313;2,875;-86,750;38402183;33704745;920;0,113;12
47,911;903,558;1,310;0,058;3,999;-0,033;-11,625;-11,813;0,250;-12,750;-18,562;31,688;346,937;2,938;-85,563;38402183;33704745;920;0,157;12
47,928;903,001;2,577;0,068;3,999;-0,080;-6,500;-19,625;1,312;-13,000;-21,562;32,375;348,187;3,063;-84,875;38402183;33704745;920;0,020;12
47,928;902,408;4,475;0,051;3,999;-0,071;0,500;-30,438;1,812;-13,063;-21,375;32,688;350,125;3,438;-84,750;38402183;33704745;920;0,187;12
47,928;901,579;7,420;0,016;3,999;-0,062;7,812;-42,563;-0,062;-12,688;-21,875;31,375;352,937;3,750;-85,312;38402183;33704745;920;0,133;12
47,911;900,834;11,851;0,013;3,999;0,000;13,250;-54,750;-3,125;-11,063;-21,063;32,875;357,062;3,938;-86,625;38402183;33704745;920;0,028;12
47,911;899,531;18,830;0,083;3,999;0,112;13,438;-69,000;-8,438;-8,500;-21,187;33,250;5,250;3,438;-88,938;38402183;33704745;920;0,028;12
47,928;898,974;28,217;0,147;3,999;0,185;8,250;-75,688;-8,063;-5,375;-20,875;33,875;13,063;2,688;-90,375;38402184;33704745;920;0,028;12
47,911;897,991;40,319;0,158;3,999;0,133;1,062;-79,750;-3,688;-4,062;-19,750;35,688;20,438;2,063;-91,000;38402183;33704745;921;0,317;12
47,911;897,044;54,298;0,138;3,999;0,123;-3,500;-86,312;1,500;-4,250;-20,750;34,375;27,938;1,875;-91,063;38402183;33704745;921;0,550;12
47,911;896,214;68,517;0,122;3,999;0,068;-6,187;-91,688;5,750;-1,687;-20,062;31,063;35,563;2,063;-90,937;38402183;33704745;921;0,654;12
47,911;895,267;82,081;-0,002;3,999;0,000;-4,687;-100,375;7,812;2,375;-20,062;30,875;43,437;2,563;-90,750;38402182;33704745;921;1,332;12
47,911;894,083;95,123;-0,080;3,999;-0,070;-0,687;-111,875;0,625;7,687;-20,500;27,375;52,500;2,813;-90,937;38402181;33704745;921;1,845;12
47,894;893,219;106,651;-0,035;3,999;0,046;4,187;-123,188;-9,063;7,562;-21,187;27,687;63,500;2,188;-91,625;38402180;33704744;921;2,422;12
47,894;892,153;117,401;0,117;3,999;0,060;1,687;-131,500;-14,188;12,188;-20,687;23,062;76,125;0,687;-92,187;38402180;33704744;921;2,422;12
47,894;891,087;127,613;0,250;3,999;0,032;0,500;-135,625;-9,625;18,250;-20,750;19,562;89,375;-0,812;-92,187;38402179;33704744;921;2,422;12
47,877;889,749;138,189;0,228;3,999;-0,079;1,937;-139,125;3,875;22,375;-19,875;15,188;103,375;-1,562;-91,875;38402178;33704743;921;2,422;12
47,877;888,920;147,896;0,133;3,999;-0,036;8,875;-147,125;6,250;23,750;-20,875;8,875;115,813;-1,500;-92,063;38402176;33704741;921;2,422;12
47,877;887,854;157,459;0,082;3,999;0,089;11,750;-155,125;2,813;26,875;-20,750;3,500;129,125;-1,687;-92,625;38402174;33704741;921;5,562;11
47,860;886,754;167,066;0,033;3,999;0,218;5,062;-160,562;-1,687;25,250;-21,688;1,375;143,625;-2,313;-92,938;38402171;33704740;921;6,575;11
47,860;885,570;176,982;0,144;3,999;0,183;-5,250;-166,625;-2,813;23,000;-22,500;-6,500;158,750;-3,313;-92,187;38402168;33704739;921;7,595;11
47,860;884,149;187,805;0,124;3,997;-0,005;-8,313;-171,937;6,187;22,062;-23,000;-12,875;173,688;-3,500;-90,563;38402164;33704737;921;8,841;11
47,842;883,048;198,678;-0,069;2,561;-0,041;0,562;-181,312;5,750;16,750;-23,000;-18,750;188,312;-2,813;-89,375;38402164;33704737;921;8,841;11
47,842;881,627;210,321;-0,127;2,375;0,109;5,500;-189,625;-5,750;9,250;-23,687;-22,375;204,375;-2,625;-88,938;38402160;33704736;921;8,841;11
47,842;880,443;222,027;0,015;2,025;0,120;-1,875;-191,062;-11,625;5,250;-24,750;-23,750;221,500;-3,188;-88,313;38402157;33704734;921;8,841;11
47,825;879,698;232,507;0,179;1,056;0,019;-6,250;-194,000;-8,000;-2,250;-24,500;-23,875;238,500;-3,375;-86,875;38402152;33704732;921;8,841;11
47,825;878,514;242,978;0,240;-0,001;-0,064;2,625;-196,750;1,000;-9,750;-24,500;-23,062;254,687;-2,563;-85,813;38402148;33704731;921;12,394;11
47,825;877,211;253,831;0,213;-0,472;0,060;15,438;-200,875;1,625;-16,750;-23,375;-16,875;270,562;-1,000;-86,063;38402144;33704729;921;13,123;11
47,825;874,725;268,178;0,161;-0,478;0,280;11,188;-201,750;1,062;-21,562;-23,250;-8,188;287,000;0,062;-87,187;38402139;33704728;921;13,801;11
47,825;873,185;283,483;0,205;-0,477;0,319;0,812;-198,375;6,250;-24,250;-25,000;-6,000;303,438;1,125;-87,812;38402135;33704726;921;14,434;11
47,808;871,493;299,662;0,069;-0,470;0,159;-7,250;-196,187;11,500;-25,375;-23,875;1,375;319,125;2,625;-87,938;38402135;33704726;921;14,434;11
47,808;869,836;316,197;-0,115;-0,442;0,158;-1,312;-195,125;8,188;-24,562;-22,000;10,188;334,688;4,062;-88,500;38402135;33704726;921;14,434;11
47,808;868,178;332,762;-0,105;-0,462;0,165;-2,250;-195,500;0,062;-19,750;-22,562;18,375;351,062;4,687;-89,687;38402125;33704722;921;14,434;10
47,808;866,875;348,069;0,010;-0,455;0,058;-3,500;-194,875;-5,562;-13,187;-22,000;21,562;8,438;4,250;-90,750;38402119;33704721;921;14,434;9
47,808;865,809;361,469;0,079;-0,413;-0,067;-3,000;-196,813;-6,312;-11,375;-22,500;26,375;26,312;3,375;-91,625;38402115;33704719;921;16,561;7
47,791;864,710;373,479;0,322;-0,412;-0,099;0,125;-196,875;-3,625;-1,875;-22,562;25,500;44,438;2,250;-92,375;38402110;33704717;922;16,561;6
47,808;863,204;385,721;0,130;-0,424;0,032;3,250;-194,500;2,125;7,062;-21,875;24,500;62,313;1,375;-93,187;38402105;33704715;922;16,561;6
47,791;861,513;398,910;-0,002;-0,409;0,119;6,625;-192,937;3,813;14,750;-22,687;21,000;80,000;0,625;-94,000;38402100;33704712;922;16,561;4
47,791;859,974;412,634;0,099;-0,423;0,123;5,375;-191,687;1,562;21,750;-21,875;14,688;97,812;-0,375;-94,563;38402094;33704708;922;18,629;9
47,791;858,434;426,809;0,150;-0,422;0,173;1,125;-190,312;2,625;22,375;-22,875;11,563;115,562;-1,500;-94,500;38402088;33704705;922;19,311;9
47,791;857,132;440,622;-0,024;-0,391;0,076;0,062;-188,000;5,812;24,687;-23,000;3,188;132,937;-2,313;-93,875;38402082;33704702;922;19,983;9
47,791;855,829;454,014;0,105;-0,410;0,104;2,125;-188,437;3,500;26,187;-22,875;-5,687;150,000;-2,938;-93,187;38402082;33704702;922;19,983;9
47,791;854,408;467,374;0,060;-0,390;0,148;0,937;-185,062;1,062;22,875;-23,500;-12,250;166,875;-3,563;-92,438;38402075;33704697;922;20,889;9
47,774;853,072;480,508;0,042;-0,392;0,168;-1,125;-182,000;1,687;17,750;-24,250;-17,562;183,312;-4,000;-91,375;38402075;33704697;922;20,889;9
47,791;851,803;493,273;0,032;-0,395;0,151;-3,625;-179,625;3,188;13,688;-23,875;-19,500;199,000;-4,000;-90,000;38402061;33704688;922;20,889;11
47,791;850,382;506,187;-0,045;-0,360;-0,014;-3,625;-180,625;2,875;7,375;-24,250;-24,375;214,188;-3,563;-88,625;38402054;33704683;922;23,498;11
47,774;848,928;519,392;-0,043;-0,362;0,081;-1,500;-178,937;-1,750;0,062;-25,375;-26,063;229,312;-3,000;-87,500;38402047;33704678;922;24,326;11
47,757;847,711;532,193;0,031;-0,363;0,085;-1,125;-177,312;-4,562;-8,688;-24,687;-22,875;244,313;-2,500;-86,562;38402040;33704674;922;24,798;11
47,774;846,560;544,414;0,109;-0,360;0,038;-3,688;-175,625;-2,813;-13,750;-23,750;-20,375;259,062;-1,875;-85,750;38402033;33704670;922;25,284;12
47,757;845,461;556,005;0,124;-0,353;0,027;-1,125;-173,062;1,125;-17,500;-25,562;-17,687;273,062;-0,687;-85,188;38402026;33704665;922;25,782;12
47,757;844,159;567,687;0,087;-0,350;0,084;3,125;-173,000;3,813;-23,375;-24,562;-11,875;286,688;0,750;-85,250;38402026;33704665;922;25,782;12
47,757;842,857;579,549;0,023;-0,332;0,065;4,125;-172,125;3,000;-25,187;-23,750;-5,687;300,250;2,188;-86,000;38402026;33704665;922;25,782;12
47,757;841,554;591,618;0,063;-0,324;0,118;3,938;-168,625;1,875;-24,062;-23,500;3,188;314,062;3,250;-87,063;38402011;33704655;922;25,782;12
47,757;840,252;603,884;0,008;-0,326;0,191;0,437;-166,437;1,062;-24,500;-22,562;9,375;327,875;4,000;-88,187;38402004;33704650;922;25,782;12
47,757;838,949;616,317;0,068;-0,323;0,098;-6,312;-165,375;3,813;-23,687;-22,875;12,375;341,812;4,500;-88,938;38401996;33704644;922;27,849;12
47,757;837,765;628,539;0,066;-0,327;0,109;-5,562;-164,750;7,312;-18,875;-22,500;19,000;355,500;5,187;-89,625;38401988;33704639;922;28,373;12
47,757;836,581;640,537;0,002;-0,310;0,001;-1,687;-164,187;6,562;-13,063;-22,500;22,687;9,188;5,812;-90,687;38401980;33704633;922;28,897;12
47,757;835,397;652,343;-0,042;-0,299;0,025;1,500;-165,375;1,250;-6,875;-22,250;23,500;23,500;5,750;-92,187;38401972;33704627;922;29,417;12
47,757;834,213;664,004;-0,015;-0,299;0,054;2,313;-165,312;-3,375;0,500;-22,500;25,750;38,750;4,875;-93,750;38401972;33704627;922;29,417;12
47,757;832,911;675,903;0,056;-0,298;0,088;0,937;-162,250;-4,187;3,063;-22,062;25,750;52,688;3,563;-94,813;38401972;33704627;922;29,417;12
47,757;831,845;687,384;0,155;-0,305;0,099;-1,562;-161,875;-3,063;10,687;-21,375;24,000;68,437;1,937;-95,500;38401956;33704615;923;29,417;10
47,739;830,865;698,240;0,138;-0,303;0,052;-2,375;-158,812;3,000;17,250;-21,875;18,187;83,938;0,562;-95,625;38401948;33704609;923;29,417;11
47,739;829,681;709,145;0,126;-0,295;-0,025;-0,187;-159,562;7,875;22,500;-21,750;14,188;98,750;-0,312;-95,563;38401939;33704603;923;29,417;11
47,739;828,734;719,517;0,063;-0,283;-0,005;5,687;-160,562;6,125;25,875;-22,500;8,375;113,500;-1,000;-95,563;38401931;33704596;923;31,914;12
47,739;827,432;730,417;0,033;-0,278;0,063;7,625;-158,312;4,500;23,563;-23,500;4,375;128,375;-1,937;-95,875;38401922;33704590;923;32,377;12
47,739;826,248;741,549;0,051;-0,274;0,146;4,687;-156,687;1,937;26,063;-23,563;-2,188;143,375;-3,063;-95,875;38401914;33704586;923;32,438;12
47,722;824,913;753,302;0,066;-0,282;0,157;-1,500;-154,938;2,875;23,875;-24,687;-8,500;159,750;-4,312;-95,062;38401905;33704580;923;32,892;7
47,722;823,966;764,528;0,036;-0,270;0,075;-5,687;-153,000;3,813;21,375;-23,875;-13,750;173,812;-5,000;-93,563;38401896;33704573;923;33,332;7
47,739;822,933;775,430;-0,014;-0,268;0,058;-5,937;-150,062;4,312;16,562;-25,062;-18,187;187,125;-5,250;-91,813;38401887;33704567;923;33,760;7
47,739;821,867;786,142;-0,038;-0,258;0,006;-5,562;-149,875;2,000;14,000;-25,750;-19,500;198,625;-5,250;-90,312;38401878;33704560;923;34,171;7
47,739;820,920;796,394;-0,007;-0,258;-0,009;-1,500;-149,937;-1,750;7,062;-26,000;-24,000;211,437;-5,062;-88,750;38401869;33704553;923;34,566;7
47,722;819,822;806,684;0,038;-0,253;-0,036;0,500;-150,500;-3,313;1,562;-25,375;-25,750;224,250;-4,875;-87,500;38401860;33704547;923;34,942;7
47,722;818,757;816,980;0,073;-0,262;0,035;3,500;-149,625;-4,500;-4,250;-25,375;-24,875;237,000;-4,500;-86,562;38401860;33704547;923;34,942;7
47,722;817,928;826,671;0,061;-0,253;0,000;2,875;-148,562;-4,437;-9,063;-24,562;-21,750;249,562;-4,062;-85,813;38401860;33704547;923;34,942;7
47,739;816,895;836,380;0,103;-0,250;0,033;3,063;-147,062;-2,250;-13,375;-25,750;-20,500;261,750;-3,375;-85,250;38401842;33704533;923;34,942;6
47,722;815,915;846,024;0,091;-0,247;0,032;2,000;-145,563;-0,125;-18,562;-25,375;-16,875;273,500;-2,375;-84,875;38401833;33704526;923;34,942;7
47,722;814,850;855,868;0,066;-0,242;0,011;1,312;-144,500;1,750;-21,500;-26,000;-12,063;285,062;-1,125;-84,625;38401824;33704519;923;34,942;6
47,722;813,903;865,609;0,024;-0,227;0,034;2,188;-143,437;2,250;-23,000;-24,562;-5,875;296,312;0,125;-84,625;38401815;33704513;923;34,942;6
47,722;812,956;875,250;0,015;-0,230;0,056;0,812;-141,625;1,250;-24,750;-24,188;2,063;307,437;1,437;-85,000;38401806;33704506;924;34,942;6
47,722;811,890;885,121;0,018;-0,227;0,064;-0,687;-139,937;-0,062;-25,687;-25,000;2,563;318,687;2,500;-85,438;38401797;33704499;924;37,109;6
47,722;811,061;894,592;0,046;-0,231;0,068;-2,188;-137,875;-0,437;-24,375;-24,188;8,750;329,937;3,375;-85,875;38401788;33704492;924;37,109;7
47,722;810,114;903,995;0,053;-0,225;0,038;-2,688;-136,875;0,625;-20,750;-23,750;14,063;341,062;4,187;-86,438;38401779;33704485;924;37,109;7
47,722;809,167;913,366;0,046;-0,211;-0,011;-1,750;-135,812;2,375;-16,750;-23,062;18,562;352,187;5,000;-87,250;38401770;33704478;924;37,799;7
47,722;808,220;922,731;0,047;-0,211;0,021;0,062;-135,375;2,688;-15,563;-23,062;19,875;3,188;5,687;-88,313;38401761;33704471;924;38,003;6
47,722;807,391;931,793;0,052;-0,209;0,007;1,812;-134,000;2,813;-10,875;-23,062;24,250;14,437;6,125;-89,625;38401752;33704465;924;38,194;6
47,722;806,444;940,898;0,029;-0,209;0,023;2,563;-132,312;2,875;-5,750;-23,500;25,187;25,750;6,312;-91,063;38401743;33704458;924;38,373;6
47,705;805,584;949,848;0,002;-0,199;0,042;1,812;-130,812;2,000;0,750;-22,000;24,750;38,563;6,125;-92,688;38401743;33704458;924;38,373;6
47,722;804,550;959,121;0,031;-0,202;0,062;1,187;-129,687;0,812;5,187;-22,062;24,750;50,438;5,562;-94,000;38401734;33704451;924;38,540;6
47,722;803,721;968,182;0,050;-0,205;0,045;-1,187;-128,625;0,687;11,375;-21,750;22,000;62,500;4,687;-95,000;38401716;33704437;924;38,848;7
47,705;802,861;977,115;0,044;-0,197;0,046;-2,500;-126,937;1,125;12,875;-22,875;20,187;74,625;3,750;-95,625;38401716;33704437;924;38,848;7
47,705;801,914;986,164;0,037;-0,201;0,027;-2,563;-125,750;1,750;17,250;-22,500;18,375;86,688;2,750;-96,000;38401707;33704430;924;38,986;7
47,705;801,203;994,724;0,017;-0,194;-0,007;-1,625;-125,250;1,687;20,562;-22,875;12,688;98,688;1,750;-96,250;38401698;33704423;924;39,118;7
47,722;800,406;1,003,060;0,017;-0,188;-0,003;0,500;-125,000;0,375;23,687;-23,687;9,563;110,750;0,687;-96,438;38401689;33704416;924;39,240;7
47,722;799,696;1,011,009;0,005;-0,186;-0,012;1,375;-125,250;-1,062;24,250;-22,875;3,250;123,000;-0,562;-96,500;38401679;33704409;924;39,357;7
47,705;798,835;1,019,023;0,004;-0,182;-0,001;2,313;-124,687;-3,313;23,563;-25,062;1,562;135,437;-2,000;-96,438;38401672;33704404;924;39,138;7
47,705;798,007;1,027,070;0,008;-0,179;-0,011;2,063;-124,750;-4,750;23,187;-23,875;-3,750;147,875;-3,563;-96,063;38401664;33704398;924;38,931;7
47,705;797,296;1,034,875;0,034;-0,170;-0,021;2,750;-123,313;-5,687;23,563;-25,062;-9,063;160,312;-5,125;-95,500;38401664;33704398;924;38,931;7
47,705;796,586;1,042,470;0,048;-0,167;-0,004;2,813;-122,000;-5,875;21,000;-23,875;-13,063;172,437;-6,562;-94,687;38401663;33704385;924;38,931;6
47,722;795,789;1,050,110;0,071;-0,174;0,005;2,063;-121,188;-4,125;18,375;-23,875;-18,750;182,937;-7,687;-93,688;38401663;33704385;924;38,931;6
47,688;794,897;1,058,054;0,063;-0,172;0,005;1,437;-119,375;-2,125;17,750;-25,375;-18,687;195,375;-8,563;-92,187;38401663;33704385;924;38,931;6
47,722;794,250;1,065,700;0,053;-0,165;0,011;1,812;-117,437;-0,125;12,875;-25,687;-23,687;204,750;-8,875;-90,875;38401663;33704385;924;38,931;6
47,705;793,390;1,073,573;0,045;-0,161;0,000;2,125;-116,687;0,812;7,875;-25,750;-25,000;214,875;-8,875;-89,500;38401663;33704385;924;38,931;6
47,705;792,561;1,081,600;0,016;-0,159;0,008;2,250;-116,000;1,625;3,750;-26,063;-25,000;224,625;-8,563;-88,125;38401663;33704385;924;38,931;6
47,705;791,851;1,089,471;0,023;-0,163;0,032;1,875;-114,375;0,812;-0,875;-25,375;-24,562;234,000;-8,063;-86,813;38401663;33704385;924;38,931;6
47,688;791,227;1,096,962;0,018;-0,160;0,051;0,875;-112,500;-0,125;-4,250;-26,500;-25,375;243,188;-7,375;-85,563;38401663;33704385;924;38,931;6
47,722;790,579;1,104,165;0,022;-0,154;0,025;-1,187;-111,000;-0,312;-9,750;-26,500;-21,875;252,062;-6,500;-84,375;38401663;33704385;924;38,931;6
47,705;789,720;1,111,650;0,019;-0,147;0,009;-2,000;-110,000;0,125;-13,063;-26,500;-21,375;261,562;-5,375;-83,125;38401663;33704385;924;38,931;6
47,688;788,978;1,119,149;0,030;-0,150;-0,001;-1,875;-109,438;-0,062;-16,750;-25,062;-18,250;269,937;-4,125;-82,125;38401486;33704295;925;43,778;2
47,688;788,268;1,126,587;0,018;-0,150;0,005;-1,000;-108,125;0,312;-19,687;-25,500;-15,188;278,125;-2,750;-81,438;38401486;33704295;925;43,778;2
47,705;787,589;1,133,894;0,018;-0,142;-0,016;-0,375;-107,062;0,500;-21,875;-26,187;-14,250;286,125;-1,312;-81,000;38401173;33704289;926;66,837;2
47,688;786,966;1,140,946;0,033;-0,144;-0,011;0,687;-106,000;0,062;-23,375;-25,750;-8,063;294,000;0,062;-80,937;38401173;33704289;926;66,837;2
47,705;786,286;1,147,912;0,021;-0,137;-0,018;0,937;-104,875;-0,312;-25,562;-25,687;-4,562;301,875;1,500;-81,125;38401173;33704289;926;66,837;2
47,705;785,694;1,154,613;0,027;-0,138;0,011;1,687;-103,875;-0,562;-25,875;-25,500;-0,062;309,688;2,813;-81,625;38401173;33704289;926;66,837;2
47,722;785,133;1,161,018;0,028;-0,137;0,001;1,937;-102,812;-0,937;-24,375;-24,687;4,250;317,562;4,000;-82,313;38400860;33704267;927;0,000;2
47,705;784,510;1,167,325;0,043;-0,141;0,011;1,187;-101,937;-0,812;-25,187;-25,500;7,375;325,437;5,062;-83,125;38400620;33704236;927;103,864;2
47,705;783,800;1,173,781;0,025;-0,137;0,004;0,875;-101,500;-0,437;-23,687;-24,000;11,000;333,375;6,062;-84,062;38400620;33704236;927;103,864;2
47,705;783,208;1,180,131;0,034;-0,134;-0,002;1,125;-100,563;0,250;-21,500;-23,563;13,563;342,187;6,937;-85,312;38400426;33704198;928;103,864;2
47,705;782,616;1,186,389;0,031;-0,128;0,000;1,062;-99,687;0,562;-18,875;-24,000;17,250;349,312;7,500;-86,375;38400426;33704198;928;103,864;2
47,705;782,024;1,192,574;0,021;-0,126;-0,001;1,500;-98,187;0,250;-15,250;-23,500;21,187;357,437;7,937;-87,688;38400426;33704198;928;103,864;2
47,705;781,432;1,198,703;0,017;-0,121;-0,003;1,812;-97,187;0,125;-10,875;-22,500;22,875;5,625;8,188;-89,000;38400426;33704198;928;103,864;2
47,705;780,840;1,204,793;0,033;-0,122;0,018;1,687;-96,250;0,125;-10,062;-23,250;23,250;13,938;8,250;-90,438;38400426;33704198;928;103,864;2
47,705;780,249;1,210,858;0,025;-0,120;0,005;0,562;-95,250;0,187;-5,000;-22,187;24,188;22,375;8,063;-91,688;38400426;33704198;928;103,864;2
47,688;779,744;1,216,712;0,034;-0,120;0,003;0,125;-94,250;0,562;-1,750;-22,750;26,063;30,875;7,750;-92,875;38400426;33704198;928;103,864;2
47,705;779,183;1,222,504;0,036;-0,115;0,011;-0,062;-93,500;0,937;3,063;-22,062;25,562;39,375;7,312;-93,938;38400426;33704198;928;103,864;2
47,688;778,797;1,227,865;0,022;-0,115;0,003;0,062;-92,438;1,062;7,750;-22,875;24,687;47,938;6,812;-95,000;38400426;33704198;928;103,864;2
47,705;778,118;1,233,486;0,016;-0,112;-0,005;0,500;-91,063;1,250;7,062;-22,750;23,375;56,625;6,125;-95,875;38400426;33704198;928;103,864;2
47,705;777,526;1,239,193;0,011;-0,107;-0,006;1,000;-90,188;1,000;11,750;-22,875;21,500;65,250;5,375;-96,750;38400426;33704198;928;103,864;2
47,705;777,052;1,244,731;0,015;-0,113;0,000;1,312;-89,000;0,375;15,062;-23,500;20,250;74,000;4,437;-97,500;38400426;33704198;928;103,864;2
47,705;776,578;1,250,107;0,010;-0,106;-0,003;1,250;-87,750;-0,625;19,500;-22,750;18,062;82,812;3,375;-98,187;38399924;33704069;0;127,069;0
47,705;776,105;1,255,341;0,015;-0,109;0,004;1,312;-86,438;-1,000;19,187;-22,062;15,875;91,625;2,188;-98,688;38399924;33704069;930;127,069;2
47,705;775,631;1,260,456;0,017;-0,106;-0,004;0,875;-85,062;-1,312;20,250;-22,750;13,187;100,438;0,937;-98,938;38399758;33704051;930;127,069;2
47,705;775,039;1,265,729;0,013;-0,104;0,008;0,500;-84,188;-1,625;24,000;-23,187;11,000;109,187;-0,250;-99,062;38399607;33704040;931;139,513;2
47,705;774,566;1,270,920;0,023;-0,102;-0,008;0,000;-83,000;-1,500;25,750;-23,500;7,000;117,813;-1,562;-98,938;38399457;33704027;931;144,549;2
47,705;774,211;1,275,783;0,018;-0,103;-0,006;0,125;-81,875;-1,250;26,500;-23,062;2,875;126,313;-2,750;-98,625;38399457;33704027;931;144,549;2
47,705;773,619;1,280,843;0,020;-0,097;-0,012;0,250;-80,937;-1,500;25,375;-23,187;1,187;134,625;-3,938;-98,250;38399457;33704027;931;144,549;2
47,688;773,115;1,285,926;0,022;-0,099;-0,007;0,375;-80,062;-0,812;25,000;-24,000;-3,188;142,812;-5,000;-97,688;38399457;33704027;931;144,549;2
47,705;772,790;1,290,661;0,017;-0,096;-0,014;0,375;-79,375;-0,500;25,500;-23,563;-5,875;151,562;-6,062;-96,937;38399457;33704027;931;144,549;2
47,705;772,435;1,295,133;0,014;-0,095;-0,011;1,062;-78,688;-0,812;24,375;-25,062;-9,000;159,250;-6,875;-96,250;38399457;33704027;931;144,549;2
47,705;771,843;1,299,862;0,016;-0,096;-0,005;1,062;-77,563;-1,000;23,687;-23,500;-12,063;166,875;-7,687;-95,500;38399457;33704027;931;144,549;2
47,705;771,251;1,304,857;0,011;-0,092;-0,005;1,750;-76,562;-1,562;22,875;-24,250;-14,375;174,250;-8,375;-94,687;38399457;33704027;931;144,549;2
47,722;771,045;1,309,328;0,009;-0,092;0,001;1,125;-75,312;-2,125;20,562;-24,687;-17,000;180,687;-8,938;-93,875;38399457;33704027;931;144,549;2
47,705;770,541;1,313,892;0,017;-0,090;0,001;0,625;-74,500;-2,375;18,062;-24,687;-19,187;187,750;-9,500;-92,875;38399457;33704027;931;144,549;2
47,722;770,216;1,318,203;0,017;-0,092;0,008;-0,062;-73,938;-2,500;16,562;-25,062;-21,375;194,625;-10,000;-91,750;38399457;33704027;931;144,549;2
47,705;769,830;1,322,405;0,016;-0,090;0,005;-0,812;-73,188;-2,563;14,750;-24,250;-23,687;201,250;-10,375;-90,563;38399457;33704027;931;144,549;2
47,705;769,475;1,326,462;0,021;-0,089;0,001;-1,750;-72,750;-2,125;12,188;-24,375;-24,562;207,688;-10,563;-89,250;38399457;33704027;931;144,549;2
47,705;769,120;1,330,399;0,022;-0,087;0,002;-2,250;-71,938;-1,687;7,750;-25,562;-26,250;213,875;-10,563;-87,938;38399457;33704027;931;144,549;2
47,705;768,646;1,334,469;0,019;-0,084;-0,002;-2,750;-71,250;-0,937;5,187;-25,562;-24,875;219,812;-10,375;-86,562;38399457;33704027;931;144,549;2
47,705;768,291;1,338,455;0,017;-0,082;-0,005;-2,563;-70,500;-0,500;3,063;-25,500;-26,375;225,500;-10,000;-85,188;38399457;33704027;931;144,549;2
47,705;768,055;1,342,141;0,013;-0,084;-0,005;-2,750;-69,813;0,125;0,062;-24,687;-26,688;230,937;-9,438;-83,875;38399457;33704027;931;144,549;2
47,705;767,699;1,345,774;0,013;-0,083;-0,008;-2,875;-68,938;0,375;-3,188;-24,687;-27,187;236,250;-8,750;-82,688;38399457;33704027;931;144,549;2
47,722;767,375;1,349,320;0,011;-0,081;-0,011;-2,313;-67,875;0,250;-6,062;-25,062;-26,250;241,375;-7,937;-81,625;38399457;33704027;931;144,549;2
47,722;767,019;1,352,852;0,011;-0,079;-0,010;-2,000;-67,500;0,375;-8,250;-24,562;-25,875;246,313;-7,000;-80,625;38399457;33704027;931;144,549;2
47,722;766,783;1,356,168;0,008;-0,079;-0,007;-1,937;-66,063;0,187;-11,563;-24,062;-24,562;251,187;-6,062;-79,813;38399457;33704027;931;144,549;2
47,722;766,309;1,359,716;0,008;-0,077;-0,006;-1,937;-65,500;0,187;-12,750;-24,062;-24,062;255,875;-5,000;-79,125;38399457;33704027;931;144,549;2
47,722;766,191;1,362,865;0,006;-0,075;-0,007;-1,687;-63,875;0,000;-15,563;-24,500;-22,687;260,500;-3,875;-78,500;38399457;33704027;931;144,549;2
47,705;765,805;1,366,109;0,011;-0,074;-0,002;-2,125;-63,375;-0,375;-18,187;-23,875;-19,687;265,000;-2,750;-78,000;38399457;33704027;931;144,549;2
47,722;765,362;1,369,560;0,008;-0,076;-0,001;-2,438;-62,063;-0,187;-20,062;-24,062;-20,062;269,437;-1,625;-77,625;38399457;33704027;931;144,549;2
47,722;765,125;1,372,858;0,010;-0,077;-0,001;-2,625;-61,500;-0,625;-21,875;-23,187;-16,562;273,750;-0,437;-77,250;38399457;33704027;931;144,549;2
47,722;764,888;1,376,004;0,010;-0,072;0,002;-3,125;-60,500;-0,625;-23,375;-23,187;-14,750;278,000;0,625;-77,063;38399457;33704027;931;144,549;2
47,722;764,651;1,379,010;0,008;-0,072;0,000;-3,125;-59,625;-0,687;-24,375;-23,875;-15,188;282,187;1,750;-76,875;38399457;33704027;931;144,549;2
47,722;764,415;1,381,892;0,011;-0,072;0,000;-3,813;-58,500;-0,750;-26,562;-23,875;-11,188;286,312;2,938;-76,750;38399457;33704027;931;144,549;2
47,722;764,060;1,384,868;0,011;-0,073;0,000;-4,312;-57,875;-0,250;-26,250;-23,062;-8,563;290,312;4,062;-76,688;38399457;33704027;931;144,549;2
47,722;763,823;1,387,747;0,012;-0,068;0,000;-4,437;-56,688;-0,187;-28,062;-23,500;-7,187;294,313;5,187;-76,688;38399457;33704027;931;144,549;2
47,722;763,704;1,390,339;0,012;-0,071;-0,003;-5,062;-56,625;0,187;-27,000;-23,250;-3,688;298,250;6,375;-76,750;38399457;33704027;931;144,549;2
47,722;763,468;1,392,865;0,012;-0,068;-0,003;-5,437;-55,188;0,500;-29,188;-21,250;-3,688;302,062;7,437;-76,875;38399457;33704027;931;144,549;2
47,722;763,112;1,395,532;0,013;-0,069;-0,001;-5,375;-54,687;1,187;-30,250;-23,250;-0,562;305,812;8,563;-77,063;38399457;33704027;931;144,549;2
47,722;762,876;1,398,155;0,016;-0,066;-0,004;-5,312;-53,938;1,562;-28,750;-22,500;0,250;309,500;9,750;-77,313;38399457;33704027;931;144,549;2
47,722;762,757;1,400,552;0,016;-0,067;-0,011;-5,375;-53,500;2,188;-28,375;-23,062;4,250;313,125;10,938;-77,688;38399457;33704027;931;144,549;2
47,739;762,551;1,402,878;0,017;-0,067;-0,005;-5,625;-52,313;2,875;-28,375;-22,375;5,500;316,625;12,125;-78,125;38399457;33704027;931;144,549;2
47,722;762,284;1,405,239;0,015;-0,068;-0,003;-5,375;-52,125;3,563;-29,500;-22,062;8,188;320,062;13,313;-78,625;38399457;33704027;931;144,549;2
47,722;762,047;1,407,596;0,017;-0,066;-0,006;-5,000;-51,438;4,125;-28,375;-22,750;10,000;323,437;14,500;-79,250;38399457;33704027;931;144,549;2
47,722;761,928;1,409,776;0,017;-0,066;-0,011;-4,625;-50,875;4,687;-27,250;-22,187;11,750;326,750;15,687;-80,000;38399457;33704027;931;144,549;2
47,722;761,810;1,411,790;0,018;-0,067;-0,005;-4,250;-50,375;5,187;-26,875;-22,500;13,063;330,000;16,875;-80,813;38399457;33704027;931;144,549;2
47,722;761,573;1,413,832;0,016;-0,066;-0,006;-4,062;-49,438;5,812;-24,687;-21,187;15,750;333,187;18,000;-81,813;38399457;33704027;931;144,549;2
47,722;761,337;1,415,909;0,018;-0,063;-0,010;-3,313;-48,563;6,187;-25,750;-22,187;16,687;336,250;19,125;-82,875;38399457;33704027;931;144,549;2
47,722;761,337;1,417,684;0,018;-0,063;-0,011;-3,000;-48,313;7,000;-24,000;-21,562;18,500;339,375;20,187;-84,062;38399457;33704027;931;144,549;2
47,722;761,100;1,419,515;0,019;-0,062;-0,012;-2,813;-47,563;7,875;-24,000;-21,562;19,750;342,375;21,187;-85,312;38399457;33704027;931;144,549;2
47,739;761,011;1,421,200;0,020;-0,060;-0,012;-2,250;-46,813;7,875;-21,750;-21,063;21,500;345,375;22,187;-86,750;38395419;33704294;0;120,578;4
47,739;760,775;1,422,958;0,018;-0,063;-0,010;-1,500;-46,125;8,188;-20,000;-20,562;23,250;348,313;23,062;-88,250;38395419;33704294;957;120,578;5
47,739;760,893;1,424,311;0,018;-0,060;-0,008;-1,125;-45,813;8,750;-20,250;-21,688;23,250;351,187;23,875;-89,875;38395368;33704383;957;119,080;5
47,739;760,656;1,425,761;0,019;-0,061;-0,014;-0,312;-45,188;8,938;-18,750;-21,250;25,500;354,125;24,562;-91,625;38395368;33704383;957;119,080;5
47,739;760,538;1,427,158;0,022;-0,063;-0,012;0,250;-44,938;9,438;-17,375;-21,375;26,875;357,000;25,187;-93,437;38395368;33704383;957;119,080;5
47,757;760,450;1,428,473;0,021;-0,061;-0,013;1,062;-44,250;9,625;-16,250;-20,250;27,187;359,875;25,750;-95,375;38395368;33704383;957;119,080;5
47,739;760,301;1,429,790;0,021;-0,059;-0,015;1,625;-44,062;10,125;-13,000;-20,375;28,563;2,813;26,187;-97,375;38395368;33704383;957;119,080;5
47,739;760,183;1,431,077;0,022;-0,059;-0,014;2,500;-43,563;10,375;-13,000;-20,875;29,875;5,687;26,500;-99,500;38395368;33704383;957;119,080;5
47,739;760,183;1,432,199;0,020;-0,059;-0,011;3,250;-43,375;10,438;-10,750;-20,562;30,375;8,688;26,688;-101,750;38395368;33704383;957;119,080;5
47,757;759,976;1,433,411;0,019;-0,059;-0,007;4,125;-42,625;10,875;-10,375;-19,187;31,187;11,625;26,750;-104,000;38395368;33704383;957;119,080;5
47,739;759,946;1,434,510;0,027;-0,055;-0,036;4,625;-42,250;10,625;-7,750;-19,500;33,375;14,625;26,688;-106,250;38395368;33704383;957;119,080;5
47,739;759,827;1,435,605;0,020;-0,058;-0,014;5,750;-40,563;10,813;-5,687;-19,250;33,000;17,562;26,500;-108,625;38395368;33704383;957;119,080;5
47,739;759,827;1,436,567;0,024;-0,057;-0,019;6,687;-38,438;10,813;-6,375;-19,250;31,688;20,438;26,250;-110,938;38395368;33704383;957;119,080;5
47,739;759,709;1,437,537;0,027;-0,055;-0,021;7,312;-36,250;10,500;-3,750;-18,687;33,875;23,187;25,875;-113,187;38395368;33704383;957;119,080;5
47,739;759,709;1,438,391;0,027;-0,058;-0,024;8,125;-34,125;9,938;-3,500;-18,375;34,250;25,812;25,438;-115,375;38395368;33704383;957;119,080;5
47,739;759,709;1,439,140;0,027;-0,058;-0,027;8,688;-32,438;9,500;-1,687;-18,687;35,063;28,312;24,937;-117,500;38395368;33704383;957;119,080;5
47,757;759,739;1,439,764;0,023;-0,056;-0,031;8,813;-30,438;9,563;1,250;-18,250;36,500;30,750;24,375;-119,562;38395368;33704383;957;119,080;5
47,739;767,760;1,432,486;0,028;-0,057;-0,034;9,000;-27,562;9,250;0,562;-18,500;36,875;33,063;23,750;-121,500;38395368;33704383;957;119,080;5
47,739;759,354;1,434,931;0,195;0,716;-0,352;5,812;-8,125;8,750;1,687;-18,375;37,250;35,500;22,687;-122,375;38395368;33704383;957;119,080;5
47,757;768,501;1,423,356;0,011;0,029;-0,073;9,125;-26,250;5,750;129,562;6,562;24,000;37,563;22,062;-124,188;38395368;33704383;957;119,080;5
47,757;759,621;1,428,185;0,004;-0,004;-0,242;-1,562;-18,687;3,375;7,687;11,688;40,563;44,938;20,250;-122,313;38395368;33704383;957;119,080;5
47,757;759,502;1,432,216;0,091;-0,048;-0,137;-4,125;-27,062;-0,625;3,000;4,187;39,000;48,437;19,125;-122,750;38395368;33704383;957;119,080;5
47,757;759,502;1,435,318;0,076;-0,039;-0,109;-8,500;-39,813;-4,250;5,562;1,875;39,750;53,875;17,312;-123,000;38395368;33704383;957;119,080;5
47,774;759,651;1,437,389;0,262;0,056;-0,075;-14,000;-53,188;-9,063;8,750;1,000;38,063;61,875;14,625;-122,937;38395368;33704383;957;119,080;5
47,757;759,739;1,438,789;0,063;0,019;-0,143;-17,562;-68,875;-14,188;9,188;2,000;35,688;72,938;10,750;-122,375;38395368;33704383;957;119,080;5
47,774;759,651;1,439,995;0,085;0,376;-0,002;-24,687;-77,812;-15,938;13,000;2,875;33,063;86,188;6,250;-121,188;38395368;33704383;957;119,080;5
47,757;759,739;1,440,801;0,061;-0,028;-0,166;-27,500;-87,938;-14,813;18,500;3,875;29,250;100,687;1,312;-119,250;38395368;33704383;957;119,080;5
47,774;759,769;1,441,393;0,045;0,175;-0,126;-34,313;-88,437;-12,438;24,000;3,875;25,687;114,500;-3,188;-116,500;38395368;33704383;957;119,080;5
47,774;760,006;1,441,563;-0,016;-0,047;-0,133;-31,125;-91,375;4,937;28,062;3,250;17,687;126,625;-6,562;-113,187;38395368;33704383;957;119,080;5
47,774;759,888;1,441,835;0,036;0,022;-0,145;-29,625;-88,688;13,000;28,062;1,000;13,187;136,687;-8,750;-109,563;38395368;33704383;957;119,080;5
47,791;759,918;1,442,026;-0,103;-0,027;-0,095;-31,625;-79,750;19,687;30,750;-2,688;8,375;144,625;-9,625;-105,625;38395368;33704383;957;119,080;5
47,791;760,036;1,442,069;-0,099;-0,041;-0,087;-31,250;-61,250;30,500;29,375;-5,687;0,875;149,312;-8,875;-101,750;38395368;33704383;957;119,080;5
47,774;760,124;1,442,026;-0,071;-0,033;-0,116;-30,375;-41,625;39,875;28,750;-10,000;-3,188;150,937;-6,562;-98,437;38395368;33704383;957;119,080;5
47,791;760,154;1,441,964;-0,081;-0,049;-0,070;-29,562;-22,375;49,313;26,000;-14,000;-7,187;149,812;-3,000;-95,500;38395368;33704383;957;119,080;5
47,791;760,510;1,441,635;0,004;-0,042;-0,084;-28,312;-5,500;52,500;23,000;-17,000;-8,563;146,437;1,375;-93,000;38395368;33704383;957;119,080;5
47,774;760,480;1,441,363;0,017;-0,031;-0,069;-29,312;7,812;53,563;20,062;-21,688;-10,250;141,812;6,000;-90,438;38395368;33704383;957;119,080;5
47,791;760,628;1,441,011;0,029;-0,040;-0,042;-27,750;20,062;53,000;17,000;-25,375;-12,063;136,250;10,563;-87,750;38395368;33704383;957;119,080;5
47,791;760,865;1,440,521;0,038;-0,030;-0,035;-25,750;28,812;52,063;14,063;-27,687;-13,500;130,125;15,000;-84,875;38395596;33702731;0;23,037;5
47,774;760,953;1,440,002;0,115;0,006;0,000;-21,375;25,875;49,375;10,687;-29,875;-14,688;124,750;18,750;-82,250;38395596;33702731;0;23,037;5
47,774;761,190;1,439,347;0,087;0,075;-0,024;-16,125;19,625;43,125;8,063;-32,063;-16,000;118,000;23,500;-78,688;38395596;33702701;948;23,037;6
47,791;761,220;1,438,703;0,389;0,157;-0,032;-10,188;15,938;30,250;5,062;-34,188;-17,250;112,625;27,687;-75,875;38395596;33702701;948;23,037;6
47,791;761,457;1,437,918;0,195;0,109;-0,002;-6,000;9,750;7,812;2,563;-35,250;-17,250;110,250;28,812;-74,000;38395596;33702701;948;23,037;6
47,791;761,457;1,437,167;0,180;0,106;0,007;3,250;0,000;-14,125;2,188;-35,188;-18,062;110,375;28,563;-73,813;38395596;33702701;948;23,037;6
47,791;761,694;1,436,271;0,104;0,057;-0,029;4,125;6,187;-26,250;4,375;-34,375;-16,750;111,813;26,750;-74,250;38395596;33702701;948;23,037;6
47,791;761,931;1,435,222;0,119;0,089;0,008;4,187;3,313;-27,562;6,187;-34,375;-16,375;268,625;24,312;-74,750;38395596;33702701;948;23,037;6
47,791;762,049;1,434,110;0,074;0,111;-0,010;5,437;1,750;-27,375;6,187;-34,375;-16,375;270,812;21,937;-75,375;38395596;33702701;948;23,037;6
47,808;762,434;1,432,705;0,030;0,101;-0,096;3,500;1,937;-25,187;8,500;-34,750;-15,875;272,875;19,687;-76,063;38395596;33702701;948;23,037;6
47,791;762,523;1,431,253;-0,022;0,094;-0,051;0,250;12,562;-20,312;11,688;-34,500;-16,750;274,312;17,562;-76,125;38395596;33702701;948;23,037;6
47,791;762,759;1,429,626;-0,014;0,087;-0,041;-2,000;16,437;-15,188;12,750;-33,500;-14,563;274,750;15,750;-75,813;38395596;33702701;948;23,037;6
47,791;762,878;1,427,945;0,005;0,057;-0,047;-4,125;20,375;-8,313;13,187;-33,563;-15,875;274,562;14,437;-75,188;38395596;33702701;948;23,037;6
47,808;763,263;1,425,939;0,014;0,115;-0,052;-7,875;23,687;-1,937;13,875;-34,000;-16,375;273,750;13,500;-74,250;38395596;33702701;948;23,037;6
47,791;763,352;1,423,929;-0,007;0,099;-0,050;-13,250;26,375;3,000;13,875;-33,563;-15,500;272,125;12,938;-72,812;38395672;33702568;946;0,000;7
47,791;763,588;1,421,773;0,013;0,033;0,001;-14,688;32,125;11,688;15,000;-33,188;-15,875;269,812;12,813;-70,937;38395680;33702558;946;0,000;7
47,791;763,707;1,419,633;0,083;0,036;-0,013;-18,062;32,938;19,312;16,687;-32,875;-15,000;266,687;13,063;-68,813;38395688;33702550;947;0,000;7
47,808;763,855;1,417,499;0,076;0,148;0,028;-25,875;28,000;24,312;15,250;-33,563;-15,875;263,312;13,812;-66,000;38395696;33702542;947;33,579;7
47,808;763,974;1,415,429;0,087;0,118;0,029;-29,687;30,375;32,938;14,188;-33,250;-16,750;259,875;14,938;-62,625;38395696;33702542;947;33,579;7
47,791;764,180;1,413,320;0,335;0,221;0,269;-25,187;29,562;45,500;12,375;-33,375;-17,250;255,375;16,875;-59,000;38395696;33702542;947;33,579;7
47,808;764,092;1,411,581;0,311;0,083;0,142;-13,187;22,062;51,875;11,188;-33,375;-19,000;250,437;19,000;-56,125;38395696;33702542;947;33,579;7
47,808;764,211;1,409,928;0,292;0,047;0,231;1,187;-11,500;72,250;9,000;-34,375;-18,875;245,000;23,187;-54,188;38395696;33702542;947;33,579;7
47,808;763,737;1,409,137;0,547;0,036;0,343;30,500;-17,625;102,812;2,063;-34,250;-17,562;235,687;33,313;-54,125;38395696;33702542;947;33,579;7
47,808;763,974;1,408,196;0,730;0,050;0,528;19,375;81,562;72,938;-4,875;-37,375;-16,250;225,313;38,375;-51,688;38395696;33702542;947;33,579;7
47,808;764,092;1,407,262;0,735;0,097;0,737;-2,438;172,312;40,438;-6,687;-36,375;-15,750;215,063;33,563;-43,125;38395696;33702542;947;33,579;7
47,808;763,974;1,406,600;0,571;0,009;0,651;14,500;121,438;26,812;-7,062;-37,563;-18,000;207,812;24,375;-37,125;38395696;33702542;947;33,579;7
47,808;764,092;1,405,910;0,701;-0,045;0,318;56,625;-27,187;62,125;-5,562;-37,188;-17,562;201,125;24,250;-38,250;38395696;33702542;947;33,579;7
47,808;764,329;1,405,070;0,800;-0,034;0,262;100,188;-122,250;81,688;-9,875;-38,500;-13,500;195,062;34,250;-45,375;38395696;33702542;947;33,579;7
47,808;764,447;1,404,210;1,263;0,144;-0,025;87,562;-28,125;24,375;-15,687;-37,688;-4,562;188,875;43,125;-56,313;38395696;33702542;947;33,579;7
47,808;764,803;1,403,089;1,136;0,124;0,429;53,188;149,312;-33,563;-16,875;-36,750;2,500;184,062;39,438;-58,188;38395696;33702542;947;33,579;7
47,808;766,105;1,400,750;0,735;0,135;0,489;29,562;278,688;-62,375;-16,875;-37,688;1,062;178,062;24,500;-52,875;38395696;33702542;947;33,579;7
47,825;766,728;1,397,711;0,088;0,042;0,612;35,438;258,062;-52,187;-12,500;-39,250;-2,875;171,187;5,062;-51,125;38395696;33702542;947;33,579;7
47,825;766,964;1,394,354;-0,015;0,051;0,290;54,313;133,687;-13,563;-7,375;-40,750;-3,688;165,500;-6,437;-55,500;38395696;33702542;947;33,579;7
47,825;767,793;1,389,932;0,177;0,070;0,213;59,625;64,000;10,875;-5,500;-40,875;-0,562;160,875;-10,313;-61,625;38395696;33702542;947;33,579;7
47,825;768,267;1,384,862;0,172;0,125;0,127;53,750;33,125;19,812;-5,750;-39,750;2,750;157,375;-10,687;-67,313;38395696;33702542;947;33,579;7
47,825;768,741;1,379,253;0,135;0,369;0,155;47,125;25,125;24,500;-8,250;-40,688;4,562;153,875;-9,688;-72,187;38395696;33702542;947;33,579;7
47,825;768,977;1,373,716;0,117;0,297;-0,023;26,937;44,563;29,562;-9,250;-39,250;8,750;149,437;-8,375;-76,000;38395696;33702542;947;33,579;7
47,825;769,333;1,368,247;0,138;0,405;-0,022;10,375;45,688;38,313;-11,875;-38,250;10,375;143,000;-6,250;-78,188;38395696;33702542;947;33,579;7
47,808;769,421;1,363,520;0,317;0,715;0,220;0,250;30,187;37,625;-14,750;-38,188;9,500;136,687;-3,688;-78,750;38395696;33702542;947;33,579;7
47,825;769,806;1,358,960;0,678;0,892;0,145;8,125;34,813;0,750;-17,750;-36,688;8,688;132,562;-2,563;-79,250;38395696;33702542;947;33,579;7
47,825;770,162;1,354,611;0,277;0,607;-0,067;3,250;62,500;-31,063;-19,187;-37,063;8,188;130,437;-5,062;-80,125;38395696;33702542;947;33,579;7
47,808;770,487;1,350,507;0,258;0,815;0,021;-7,000;61,875;-33,938;-18,000;-38,250;6,750;128,437;-8,688;-80,563;38395696;33702542;947;33,579;7
47,825;770,872;1,346,490;0,013;0,676;0,197;-9,813;66,688;-52,125;-16,562;-37,500;6,750;127,062;-14,313;-80,625;38395696;33702542;947;33,579;7
47,825;770,991;1,343,052;-0,387;0,637;0,322;16,375;69,438;-65,875;-12,562;-39,000;3,250;127,500;-20,375;-82,250;38395696;33702542;947;33,579;7
47,808;771,315;1,339,730;-1,061;0,718;-0,008;33,563;64,125;-61,375;-9,875;-40,875;0,562;128,687;-26,562;-86,875;38395696;33702542;947;33,579;7
47,825;771,583;1,336,590;-0,489;0,314;0,024;-7,562;13,000;17,812;-4,187;-40,188;4,562;128,500;-28,062;-89,687;38395696;33702542;947;33,579;7
47,825;771,938;1,333,433;-0,657;0,459;0,061;-48,813;36,063;39,875;-4,750;-40,688;3,688;123,125;-25,500;-87,812;38395696;33702542;947;33,579;7
47,825;772,412;1,330,033;-0,715;0,648;0,856;-61,063;87,063;85,687;-7,500;-40,688;0,187;110,813;-20,312;-84,875;38395696;33702542;947;33,579;7
47,825;772,530;1,327,006;-0,236;0,422;0,666;-21,312;144,500;102,750;-12,688;-40,688;-4,750;91,750;-12,625;-84,938;38395696;33702542;947;33,579;7
47,808;773,092;1,323,565;0,111;0,549;0,791;12,063;189,375;110,563;-18,750;-38,563;-10,000;68,750;-4,312;-87,000;38395696;33702542;947;33,579;7
47,808;773,210;1,320,475;0,422;0,343;0,333;30,937;223,000;100,937;-20,875;-35,000;-15,250;41,813;4,375;-89,188;38396182;33702721;946;75,006;6
47,825;773,477;1,317,472;0,495;0,321;0,290;16,250;240,312;98,437;-20,562;-32,750;-19,750;13,063;12,688;-88,187;38396203;33702735;946;76,630;6
47,825;773,714;1,314,592;0,741;0,674;0,535;24,188;230,312;83,000;-19,000;-32,000;-24,562;346,375;19,125;-83,688;38396203;33702735;946;76,630;6
47,825;773,833;1,312,017;0,549;0,394;0,450;36,625;204,750;87,688;-13,063;-31,063;-29,500;323,062;23,500;-78,938;38396216;33702757;946;77,036;5
47,825;773,951;1,309,713;0,992;0,608;0,918;45,750;207,187;95,312;-5,750;-31,750;-30,375;300,750;27,187;-73,000;38396229;33702778;947;77,338;5
47,825;774,188;1,307,454;0,904;0,276;0,675;91,312;247,812;71,063;0,375;-32,750;-28,062;278,875;27,250;-68,125;38396244;33702796;947;77,499;5
47,825;774,662;1,304,854;1,036;0,285;0,663;111,875;257,562;86,375;7,000;-36,750;-21,562;255,875;25,250;-66,188;38396258;33702814;947;77,456;5
47,825;775,017;1,302,096;1,494;0,527;0,540;110,375;308,375;84,750;6,250;-38,875;-16,250;230,688;21,937;-64,750;38396258;33702814;947;77,456;5
47,825;775,372;1,299,181;0,864;0,235;0,346;98,250;335,562;89,313;6,187;-41,562;-4,187;204,250;16,062;-64,000;38396272;33702832;947;76,875;6
47,825;775,490;1,296,488;1,259;0,609;0,600;83,812;298,313;114,813;0,062;-41,250;3,688;176,625;12,125;-64,438;38396286;33702848;947;76,310;6
47,842;775,521;1,294,159;1,100;0,380;0,528;89,125;231,250;119,188;-11,688;-39,500;7,687;151,312;11,813;-66,750;38396286;33702848;947;76,310;6
47,825;775,490;1,292,268;1,388;0,444;0,539;118,875;133,062;105,187;-21,875;-35,063;10,062;129,375;16,000;-71,313;38396286;33702848;947;76,310;6
47,825;775,846;1,290,187;1,331;0,421;0,574;103,500;259,750;60,875;-30,250;-29,062;10,750;100,250;20,562;-77,625;38396318;33702881;947;77,202;5
47,842;776,824;1,287,009;1,186;0,461;0,574;61,375;381,500;20,438;-36,063;-26,187;0,062;72,750;16,625;-74,125;38396336;33702897;947;78,369;5
47,842;777,297;1,283,438;0,868;0,492;0,402;87,063;237,437;17,187;-30,562;-26,562;-17,687;50,063;10,000;-73,875;38396336;33702897;947;78,369;5
47,842;778,008;1,279,108;0,497;0,663;0,218;95,188;158,875;20,125;-26,500;-26,500;-22,562;35,250;7,875;-79,625;38396336;33702897;947;78,369;5
47,842;778,600;1,274,192;0,495;0,864;0,035;76,250;179,000;20,375;-21,000;-30,500;-24,500;19,500;7,812;-85,000;38396336;33702897;947;78,369;5
47,842;779,074;1,268,947;0,468;0,858;-0,025;57,125;191,375;14,125;-13,250;-33,875;-25,750;1,812;8,438;-88,313;38396336;33702897;947;78,369;5
47,842;779,547;1,263,482;0,353;0,798;-0,046;47,625;188,937;5,375;-5,250;-35,000;-26,250;345,937;8,813;-89,938;38396336;33702897;947;78,369;5
47,860;779,933;1,258,077;0,200;0,593;-0,093;36,563;185,125;4,562;3,188;-36,000;-23,500;326,750;9,500;-91,125;38396336;33702897;947;78,369;5
47,842;780,140;1,253,196;0,175;1,105;-0,245;19,750;192,438;-0,500;6,500;-38,188;-21,375;309,500;10,000;-90,563;38396336;33702897;947;78,369;5
47,842;780,495;1,248,568;0,113;0,852;-0,065;8,813;194,875;-1,312;10,750;-38,688;-19,187;294,500;9,875;-88,875;38396336;33702897;947;78,369;5
47,860;780,881;1,244,113;0,257;0,973;0,235;21,875;191,500;-2,625;17,000;-37,500;-11,063;278,250;9,250;-87,063;38396336;33702897;947;78,369;5
47,860;781,118;1,240,104;0,382;1,142;0,182;52,688;196,437;-8,438;19,875;-36,875;-4,562;262,625;8,000;-87,562;38396336;33702897;947;78,369;5
47,860;781,355;1,236,485;0,623;1,214;-0,174;63,250;212,750;-35,688;21,000;-35,563;5,250;246,562;6,000;-90,438;38396336;33702897;947;78,369;5
47,860;781,591;1,233,190;0,192;1,127;-0,476;82,625;211,063;-56,562;19,875;-36,063;11,875;231,625;2,500;-95,312;38396336;33702897;947;78,369;5
47,842;781,797;1,230,210;0,446;1,167;-1,519;24,875;184,750;-48,313;16,750;-31,000;23,875;213,812;1,187;-100,250;38396336;33702897;947;78,369;5
47,842;782,153;1,227,217;0,357;0,877;-0,931;-30,562;112,563;-100,812;10,875;-29,250;30,062;203,062;-2,250;-100,000;38396336;33702897;947;78,369;5
47,842;782,508;1,224,186;-0,385;0,926;-0,686;-69,188;136,625;-123,063;9,688;-28,250;30,375;201,438;-10,813;-97,125;38396336;33702897;947;78,369;5
47,860;782,657;1,221,451;-0,776;0,990;-0,438;-103,438;228,625;-90,687;10,062;-29,687;27,750;191,187;-18,500;-94,125;38396336;33702897;947;78,369;5
47,842;782,863;1,218,880;-1,352;2,196;0,110;-135,000;339,500;-45,250;4,875;-32,500;26,875;168,750;-22,875;-93,125;38396336;33702897;947;78,369;5
47,842;783,455;1,215,819;-2,685;2,267;0,972;-69,125;443,000;68,688;-3,563;-38,375;19,187;132,125;-21,000;-97,438;38396336;33702897;947;78,369;5
47,842;783,574;1,213,036;-0,452;1,472;0,227;-180,062;331,625;247,000;-16,062;-39,688;6,250;60,500;6,062;-91,937;38396336;33702897;947;78,369;5
47,860;782,894;1,211,813;1,534;2,572;3,165;-169,437;366,250;148,812;-28,250;-30,500;-16,187;21,750;18,250;-66,250;38396772;33703105;0;80,953;4
47,842;783,811;1,209,501;0,844;1,841;2,398;120,500;424,375;17,562;-17,187;-18,000;-36,563;357,812;4,750;-57,563;38396772;33703105;0;80,953;4
47,842;784,640;1,206,317;-0,016;1,546;-0,065;198,062;439,250;108,500;11,375;-23,250;-35,250;329,437;-5,812;-75,312;38396789;33703112;947;80,953;5
47,860;784,907;1,203,076;2,748;2,240;-1,515;-24,125;329,062;72,375;24,875;-32,875;-15,375;289,062;0,000;-85,000;38396806;33703121;947;80,405;6
47,860;784,789;1,200,423;0,614;1,760;0,920;-52,750;99,813;-193,375;24,500;-34,750;-8,750;282,562;-9,813;-79,563;38396806;33703121;947;80,405;6
47,842;784,521;1,198,613;-2,670;1,579;1,058;62,000;-65,063;-124,188;33,875;-27,375;-5,187;297,750;-26,750;-79,500;38396822;33703128;948;80,405;6
47,842;785,113;1,196,263;-2,275;0,984;0,599;160,875;-421,938;172,500;38,375;-19,750;-6,062;315,000;-18,437;-79,250;38396839;33703133;948;79,167;6
47,842;785,705;1,193,393;-0,281;1,268;-1,535;299,312;-578,312;164,125;22,500;-31,875;-20,687;341,875;2,250;-96,438;38396839;33703133;948;79,167;6
47,860;785,855;1,190,662;-0,718;1,477;-2,611;112,437;-623,500;41,938;-3,750;-41,750;-10,188;50,688;-8,250;-114,375;38396839;33703133;948;79,167;6
47,860;786,210;1,187,775;0,110;1,604;-0,816;-29,375;-512,625;135,000;-10,375;-43,063;-0,875;109,438;-17,687;-103,000;38396839;33703133;948;79,167;6
47,860;786,447;1,184,920;1,536;1,734;0,099;34,438;-505,062;112,813;-14,750;-40,875;9,750;143,812;-10,000;-91,375;38396839;33703133;948;79,167;6
47,860;786,684;1,182,108;0,685;1,311;-0,647;25,250;-440,437;-10,000;-9,250;-36,188;22,562;178,687;-6,937;-89,813;38396839;33703133;948;79,167;6
47,860;786,921;1,179,347;-0,675;1,226;-0,448;-64,563;-336,250;47,500;9,250;-33,563;22,562;211,375;-5,687;-84,000;38396839;33703133;948;79,167;6
47,860;786,802;1,177,192;-0,045;1,103;0,055;-40,375;-268,000;153,187;15,563;-37,688;11,500;224,562;7,187;-78,375;38396839;33703133;948;79,167;6
47,860;786,684;1,175,598;0,772;1,124;-0,226;27,062;-252,375;162,437;11,875;-40,875;4,750;228,625;25,312;-83,375;38396839;33703133;948;79,167;6
47,860;786,921;1,173,965;1,697;1,187;-1,161;-12,250;-152,625;30,375;0,875;-42,375;3,500;233,875;35,438;-97,250;38396839;33703133;948;79,167;6
47,860;787,157;1,172,285;1,527;0,859;-0,726;-128,750;-113,875;-133,125;-0,500;-43,250;3,875;249,937;30,312;-96,875;38396839;33703133;948;79,167;6
47,860;787,631;1,170,229;0,541;0,823;1,036;-150,250;-215,875;-207,125;9,688;-41,750;-7,187;284,938;14,063;-89,687;38396839;33703133;948;79,167;6
47,860;787,750;1,168,283;-0,038;0,714;1,897;-80,813;-330,688;-179,312;17,375;-34,750;-21,375;325,313;-1,125;-82,000;38396839;33703133;948;79,167;6
47,860;787,868;1,166,444;0,182;0,620;1,855;85,125;-476,562;-148,187;8,688;-31,063;-31,875;27,313;-8,813;-77,063;38396839;33703133;948;79,167;6
47,842;787,955;1,164,747;-0,286;0,609;1,557;136,750;-522,687;-202,250;-8,563;-35,188;-27,062;72,875;-14,375;-78,250;38397079;33703193;0;67,548;5
47,860;788,223;1,162,943;-0,862;0,603;1,807;115,813;-659,375;-174,312;-13,000;-38,500;-16,875;131,687;-18,812;-72,125;38397079;33703193;948;67,548;7
47,860;788,460;1,161,072;-0,359;0,555;1,950;140,437;-604,812;-137,687;-7,562;-43,250;2,063;184,250;-9,938;-67,438;38397091;33703195;948;67,548;6
47,860;788,697;1,159,132;-0,612;0,544;1,054;178,562;-491,000;-168,875;10,750;-39,563;10,062;231,375;-7,625;-75,438;38397098;33703196;948;62,081;6
47,860;788,815;1,157,280;-0,841;0,753;0,427;119,437;-593,562;-156,437;28,750;-31,875;3,563;286,375;-12,875;-79,875;38397098;33703196;948;62,081;6
47,860;788,934;1,155,514;-0,483;0,578;0,584;70,312;-581,625;-77,000;27,562;-27,187;-24,875;339,375;-10,938;-74,500;38397098;33703196;948;62,081;6
47,860;789,171;1,153,678;-0,523;0,819;1,030;85,687;-514,937;-31,063;14,875;-28,687;-32,875;20,312;-1,625;-75,250;38397125;33703195;948;62,081;6
47,860;789,289;1,151,924;-0,093;0,850;0,348;129,750;-454,375;-39,438;-14,063;-32,688;-28,750;57,438;2,938;-86,250;38397139;33703194;948;59,658;6
47,842;789,495;1,150,137;0,130;1,008;0,315;104,688;-441,063;-89,625;-26,500;-36,375;-3,500;103,812;-4,375;-96,875;38397139;33703194;948;59,658;6
47,860;789,644;1,148,388;-0,158;0,839;0,579;41,625;-431,813;-132,062;-14,875;-36,375;18,562;168,750;-22,687;-94,062;38397153;33703193;948;59,658;6
47,860;789,763;1,146,715;-0,376;0,795;1,324;46,750;-434,625;-106,187;10,000;-34,875;22,062;212,562;-30,562;-76,938;38397166;33703191;948;59,749;6
47,860;789,881;1,145,112;-0,526;0,732;1,137;106,875;-378,937;-94,375;29,500;-29,750;10,687;245,625;-26,250;-63,938;38397175;33703185;948;58,334;6
47,860;790,118;1,143,427;-0,758;0,680;0,889;160,812;-451,125;-90,375;36,000;-25,687;-5,750;277,187;-16,812;-61,938;38397181;33703179;948;56,897;6
47,860;790,237;1,141,805;-0,855;0,631;0,703;174,125;-563,375;-85,625;32,000;-25,000;-16,875;314,813;-4,750;-68,813;38397181;33703179;949;56,897;5
47,842;790,442;1,140,136;-0,623;0,667;0,842;162,562;-653,250;-89,250;14,000;-29,062;-31,063;4,312;1,250;-82,812;38397187;33703173;949;56,038;5
47,860;790,592;1,138,488;-0,339;0,701;0,841;142,000;-676,187;-108,750;-12,750;-37,063;-21,375;71,125;-6,812;-94,375;38397187;33703173;949;56,038;5
47,842;790,679;1,136,937;-0,370;0,965;0,531;87,625;-708,563;-112,000;-14,188;-41,063;7,500;145,250;-20,687;-89,375;38397187;33703173;949;56,038;5
47,860;790,829;1,135,403;0,072;0,946;0,832;34,250;-734,062;-70,688;10,375;-37,875;13,688;204,625;-16,875;-69,625;38397214;33703175;949;50,969;5
47,860;791,066;1,133,775;0,619;0,855;0,583;20,375;-682,250;-52,375;19,187;-38,000;3,500;248,687;4,000;-64,875;38397214;33703175;950;50,969;6
47,877;791,215;1,132,160;0,883;0,725;0,317;-7,062;-666,437;-56,750;17,250;-38,000;-17,250;293,875;19,000;-78,375;38397214;33703175;950;50,969;6
47,860;791,421;1,130,489;1,135;0,711;-0,022;-52,063;-631,187;-62,688;-5,375;-38,000;-26,562;351,312;16,250;-95,312;38397214;33703175;950;50,969;6
47,877;791,570;1,128,831;1,148;0,703;0,021;-111,187;-605,375;-43,875;-23,375;-36,500;-11,750;57,438;4,375;-97,313;38397214;33703175;950;50,969;6
47,877;791,807;1,127,081;1,423;0,752;0,369;-107,312;-634,375;0,312;-23,687;-35,750;7,062;115,437;0,187;-88,313;38397214;33703175;950;50,969;6
47,860;791,895;1,125,422;1,395;0,642;0,274;-103,812;-583,750;-17,625;-20,375;-36,500;14,188;164,750;4,375;-81,000;38397214;33703175;950;50,969;6
47,877;792,044;1,123,781;1,558;0,922;0,561;-95,563;-585,750;-31,312;-1,687;-39,875;16,875;208,375;11,438;-78,750;38397279;33703177;950;0,000;6
47,877;792,163;1,122,195;1,568;0,713;0,437;-85,937;-624,812;-61,750;11,188;-40,250;1,750;259,125;15,375;-84,938;38397287;33703173;950;40,014;6
47,877;792,399;1,120,518;1,102;0,743;0,389;-119,188;-583,125;-56,688;10,062;-39,875;-17,250;314,875;11,937;-88,750;38397298;33703170;950;40,459;5
47,860;792,487;1,118,932;1,099;0,692;0,684;-89,938;-628,937;-9,813;-8,188;-36,875;-23,375;10,375;10,313;-89,563;38397307;33703171;950;40,459;5
47,877;792,755;1,117,217;0,916;1,058;0,469;-46,688;-622,375;0,437;-20,687;-34,750;-19,000;66,688;8,813;-93,437;38397319;33703167;950;42,061;5
47,877;792,873;1,115,555;0,537;0,939;0,248;-8,125;-608,375;20,875;-22,187;-32,563;20,062;138,187;3,250;-97,688;38397328;33703164;950;41,651;5
47,877;792,873;1,114,092;0,452;0,935;0,034;13,125;-593,687;22,000;-10,000;-31,375;27,062;196,813;-2,375;-98,437;38397338;33703162;950;41,450;5
47,877;793,228;1,112,392;0,037;0,794;-0,429;2,438;-551,625;37,813;15,563;-31,500;24,000;250,937;-6,312;-95,125;38397338;33703162;950;41,450;5
47,877;793,228;1,110,886;0,322;0,828;-0,725;-24,875;-560,375;75,188;27,687;-34,063;0,000;295,375;-3,188;-89,313;38397338;33703162;950;41,450;5
47,877;793,465;1,109,286;0,757;0,812;-0,761;-39,375;-604,187;108,125;13,375;-37,688;-22,187;336,000;6,875;-87,688;38397354;33703158;951;41,450;5
47,877;793,584;1,107,733;0,897;0,824;-0,723;-26,312;-638,625;117,250;-18,062;-35,063;-20,750;21,000;15,750;-96,438;38397361;33703156;951;40,068;6
47,877;793,584;1,106,369;1,052;0,862;-0,865;-11,750;-667,562;103,688;-31,063;-33,250;-6,562;81,250;11,688;-110,437;38397361;33703156;951;40,068;6
47,894;793,852;1,104,868;0,666;0,762;-0,901;-24,125;-673,437;91,562;-27,375;-23,750;27,562;162,062;-4,062;-113,125;38397361;33703156;951;40,068;6
47,877;794,057;1,103,303;0,717;0,809;-0,746;-33,313;-608,375;114,750;7,875;-24,000;35,500;227,187;-12,500;-101,000;38397385;33703152;951;0,000;8
47,894;794,326;1,101,600;0,947;0,774;-0,446;-6,312;-633,687;104,813;28,375;-29,687;8,750;273,812;-6,750;-89,250;38397393;33703152;951;38,748;8
47,877;794,413;1,099,974;0,883;0,902;-0,273;19,312;-661,688;63,625;19,375;-36,250;-18,250;321,187;2,625;-88,187;38397400;33703151;951;38,053;8
47,894;794,444;1,098,499;0,664;0,943;0,025;36,563;-653,688;25,875;4,562;-38,500;-24,500;16,062;4,750;-95,375;38397400;33703151;951;38,053;6
47,894;794,681;1,096,925;0,520;1,076;0,329;48,500;-642,187;-17,312;-21,000;-38,500;-11,063;81,188;-3,375;-100,687;38397408;33703149;952;38,053;6
47,894;794,799;1,095,395;0,371;0,883;0,550;44,000;-622,937;-52,375;-18,062;-36,688;16,750;149,000;-15,438;-95,625;38397413;33703147;952;38,053;5
47,894;794,918;1,093,906;0,042;0,844;0,759;32,313;-609,500;-59,750;9,250;-34,875;23,062;204,875;-19,562;-80,875;38397413;33703147;952;38,053;5
47,894;795,036;1,092,458;-0,013;0,896;1,203;69,687;-602,562;-41,250;29,500;-33,500;2,188;249,125;-9,375;-70,500;38397413;33703147;952;38,053;5
47,894;795,273;1,090,909;-0,170;0,916;0,855;117,813;-556,562;-71,000;27,375;-33,063;-10,188;290,375;0,875;-76,188;38397438;33703144;952;36,177;6
47,894;795,510;1,089,258;-0,188;0,789;0,733;115,312;-621,250;-92,375;13,750;-35,688;-24,750;342,437;0,437;-88,187;38397446;33703143;952;35,799;6
47,894;795,510;1,087,787;-0,337;0,870;0,600;77,313;-675,375;-102,937;-6,000;-39,688;-22,562;49,687;-9,875;-92,438;38397452;33703142;952;35,360;6
47,894;795,628;1,086,356;-0,223;0,875;0,950;50,813;-730,625;-50,250;-13,688;-42,250;-2,188;115,688;-14,500;-82,500;38397460;33703140;952;35,192;6
47,894;795,984;1,084,684;0,194;0,971;0,497;78,688;-681,625;-42,875;-2,000;-41,500;12,500;186,312;-2,188;-78,000;38397460;33703140;952;35,192;6
47,894;796,102;1,083,050;0,379;0,744;0,279;39,563;-683,500;-62,000;13,375;-39,000;8,875;235,500;2,125;-83,375;38397477;33703134;953;34,947;7
47,894;796,221;1,081,458;0,548;0,752;0,232;-3,000;-676,438;-52,625;21,875;-36,750;-12,000;295,500;1,437;-87,063;38397477;33703134;953;34,947;7
47,911;796,489;1,079,731;0,730;0,801;0,153;-38,250;-666,938;-23,750;13,000;-37,875;-21,562;354,187;1,312;-86,125;38397487;33703132;953;34,947;7
47,911;796,607;1,078,050;0,986;0,795;-0,058;-58,063;-649,125;3,563;-13,000;-37,500;-23,750;47,938;5,375;-84,875;38397500;33703128;954;34,947;8
47,894;796,694;1,076,456;1,020;0,760;-0,185;-72,500;-605,750;32,438;-28,750;-35,000;-1,687;96,875;11,250;-86,813;38397512;33703125;954;35,227;8
47,911;796,726;1,075,017;1,285;0,854;-0,354;-70,813;-593,687;41,500;-21,000;-33,063;20,500;144,937;15,062;-93,187;38397524;33703119;954;35,492;8
47,894;796,813;1,073,661;1,338;0,744;-0,401;-92,938;-565,562;32,625;2,750;-34,688;25,000;198,437;12,438;-98,938;38397535;33703112;954;35,658;8
47,894;796,931;1,072,344;1,530;0,700;-0,503;-122,375;-582,375;21,063;11,188;-36,875;17,000;255,062;6,937;-98,000;38397548;33703106;955;35,753;8
47,911;797,436;1,070,611;1,457;0,539;-0,280;-152,187;-608,812;37,688;16,500;-40,563;-7,750;310,250;5,000;-90,438;38397548;33703106;955;35,753;8
47,894;797,405;1,069,087;1,751;0,726;0,143;-120,000;-675,875;74,125;-2,563;-38,375;-26,875;359,812;12,688;-86,375;38397559;33703100;956;35,753;8
47,911;797,555;1,067,566;1,762;0,862;-0,004;-54,125;-726,250;43,875;-31,562;-31,375;-7,687;56,313;17,250;-97,438;38397570;33703094;956;35,808;8
47,911;797,673;1,066,084;1,258;0,985;0,005;-52,500;-683,750;5,875;-25,062;-27,375;27,250;131,062;4,875;-106,125;38397584;33703089;956;35,808;7
47,911;797,910;1,064,502;0,874;0,875;0,288;-35,375;-675,125;18,062;-8,188;-28,500;33,375;204,937;-8,250;-99,687;38397593;33703085;956;35,979;7
47,911;797,910;1,063,097;0,809;0,847;0,123;-0,875;-655,375;11,688;25,187;-31,063;17,875;264,125;-10,625;-87,812;38397593;33703085;956;35,979;7
47,911;798,384;1,061,314;0,280;0,893;-0,013;-11,813;-617,375;12,688;27,062;-33,688;-15,750;312,375;-3,688;-79,875;38397593;33703085;956;35,979;7
47,911;798,384;1,059,707;0,166;0,938;0,404;20,312;-553,937;65,312;0,250;-34,000;-30,500;350,750;9,063;-81,625;38397593;33703085;956;35,979;7
47,911;798,621;1,058,004;0,447;1,019;-0,019;83,375;-528,062;36,688;-26,500;-34,000;-12,250;29,062;15,000;-97,875;38397630;33703075;957;35,907;6
47,911;798,621;1,056,489;-0,201;0,868;-0,639;42,563;-465,312;4,062;-32,750;-32,563;3,188;82,938;4,000;-111,688;38397630;33703075;957;35,907;6
47,911;798,858;1,054,879;-0,175;0,872;-0,794;0,375;-403,625;43,813;-21,375;-29,250;27,562;136,375;-8,313;-111,500;38397638;33703071;957;35,738;6
47,911;798,976;1,053,316;0,408;0,746;-0,653;-45,875;-448,250;79,125;10,750;-27,500;30,562;186,750;-13,875;-99,000;38397638;33703071;957;35,738;6
47,911;799,213;1,051,658;0,626;0,786;-0,297;-48,938;-473,750;90,250;18,875;-30,000;24,062;219,313;-8,063;-86,188;38397667;33703063;0;35,784;6
47,911;799,331;1,050,046;1,011;0,877;-0,064;-19,000;-498,125;71,500;24,750;-36,250;1,375;248,937;4,437;-81,813;38397667;33703063;957;35,784;6
47,911;799,450;1,048,484;0,881;0,898;-0,193;-1,187;-517,000;11,750;13,875;-40,375;-14,188;285,875;12,000;-88,563;38397676;33703061;958;35,784;6
47,911;799,568;1,046,969;0,375;0,897;-0,028;-29,188;-478,437;-7,312;-2,688;-39,875;-21,750;330,688;9,625;-95,750;38397686;33703059;958;35,784;7
47,911;799,924;1,045,218;0,399;0,911;0,225;-22,313;-464,500;5,625;-12,250;-39,875;-18,562;17,000;4,562;-98,250;38397700;33703054;958;36,023;7
47,911;799,924;1,043,656;0,432;0,936;0,013;-1,687;-451,750;-5,750;-22,500;-39,188;-6,562;63,250;-1,312;-98,688;38397713;33703048;958;35,995;7
47,911;799,924;1,042,284;-0,141;0,927;-0,165;-17,937;-440,500;2,688;-21,000;-38,500;11,000;108,062;-7,000;-95,062;38397727;33703042;958;35,779;7
47,911;800,160;1,040,815;-0,097;0,877;-0,365;-30,438;-404,875;67,375;-9,250;-37,688;20,000;142,000;-4,812;-88,375;38397739;33703039;958;35,445;7
47,928;800,310;1,039,349;0,479;0,891;-0,604;-31,000;-430,625;111,688;2,063;-37,688;20,375;167,375;5,687;-85,750;38397750;33703039;959;35,445;7
47,911;800,397;1,037,958;1,249;0,940;-0,841;-21,875;-492,500;94,625;4,687;-39,188;16,750;196,375;16,500;-91,937;38397760;33703037;959;35,127;7
47,911;800,516;1,036,602;1,446;0,742;-0,919;-62,000;-592,063;24,125;8,375;-41,875;9,688;245,062;14,625;-103,125;38397760;33703037;959;35,127;7
47,911;800,753;1,035,142;1,367;0,625;-0,469;-134,000;-646,250;25,062;10,563;-42,500;-7,500;313,375;2,875;-102,062;38397760;33703037;959;35,127;7
47,911;800,990;1,033,576;1,777;0,758;-0,092;-111,625;-720,875;80,062;-5,187;-41,375;-18,062;15,813;1,000;-91,312;38397783;33703033;959;35,127;7
47,928;801,139;1,032,005;1,751;0,885;-0,257;-53,125;-765,625;66,188;-26,063;-35,875;-1,562;74,438;8,125;-90,125;38397795;33703032;959;35,127;8
47,928;801,258;1,030,469;1,331;0,891;-0,179;-46,688;-730,312;36,438;-26,750;-34,000;15,188;139,187;8,438;-96,688;38397809;33703033;959;34,703;8
47,928;801,495;1,028,831;1,136;0,949;0,056;-35,875;-700,500;34,375;-0,062;-32,563;26,250;207,562;2,500;-99,000;38397821;33703033;959;34,571;8
47,928;801,613;1,027,231;1,059;0,984;0,242;-3,375;-704,187;8,313;23,375;-35,500;6,687;276,562;-4,250;-96,500;38397835;33703032;959;34,731;8
47,928;801,732;1,025,672;0,752;0,764;0,308;0,000;-692,812;-19,187;16,500;-38,500;-20,250;341,312;-8,563;-89,250;38397835;33703032;959;34,731;8
47,928;801,969;1,024,016;0,626;0,555;0,256;-11,563;-671,812;-20,562;-9,188;-38,063;-21,187;36,938;-5,125;-80,813;38397835;33703032;959;34,731;8
47,928;801,969;1,022,544;0,265;0,745;0,523;1,875;-626,000;15,313;-23,875;-37,688;-0,750;94,188;7,125;-80,563;38397835;33703032;959;34,731;8
47,928;802,205;1,020,976;0,521;0,837;0,435;49,062;-580,625;20,812;-14,688;-34,375;21,500;139,375;12,875;-93,000;38397886;33703025;0;35,082;7
47,928;802,324;1,019,450;0,406;0,847;-0,298;51,750;-541,000;-36,875;-3,688;-34,000;29,500;197,062;3,375;-106,187;38397886;33703025;959;35,082;7
47,928;802,442;1,017,966;-0,542;0,707;-0,343;-40,188;-469,125;-14,313;22,250;-30,375;19,687;258,187;-11,937;-102,625;38397901;33703024;960;35,082;8
47,928;802,798;1,016,246;-0,269;0,826;0,158;-31,375;-385,312;98,187;30,000;-31,750;-4,687;292,250;-11,375;-90,062;38397912;33703020;960;35,082;7
47,928;802,916;1,014,567;0,548;1,025;-0,519;15,500;-363,000;106,250;17,062;-36,250;-21,562;312,875;-0,125;-86,813;38397926;33703018;960;35,082;6
47,928;803,035;1,012,935;0,882;0,968;-0,582;13,688;-390,250;48,813;-4,750;-38,063;-24,250;337,687;7,250;-91,000;38397939;33703016;960;35,082;6
47,928;803,271;1,011,210;0,916;1,085;0,013;-15,375;-428,188;-18,687;-14,688;-38,750;-21,187;14,563;6,000;-95,312;38397952;33703015;960;35,082;6
47,911;803,358;1,009,574;0,334;0,846;0,454;-27,000;-441,812;-42,250;-25,500;-37,250;-6,062;60,000;-0,937;-95,000;38397971;33703011;961;35,344;7
47,928;803,627;1,007,811;-0,079;0,857;0,582;-1,875;-465,250;-15,750;-21,000;-38,063;9,875;104,125;-5,750;-91,000;38397984;33703009;961;35,308;7
47,928;803,864;1,005,958;0,071;0,879;0,157;59,563;-488,375;1,250;1,750;-36,250;22,000;159,437;-5,062;-89,500;38397998;33703008;961;35,373;7
47,945;803,895;1,004,271;-0,041;0,930;-0,544;40,250;-498,125;-10,687;11,563;-35,188;21,875;198,375;-5,750;-90,375;38398011;33703008;961;35,344;6
47,928;804,101;1,002,541;-0,163;0,720;-0,286;-16,812;-499,062;38,563;25,500;-34,000;8,563;240,500;-3,875;-86,500;38398022;33703008;961;35,199;6
47,928;804,219;1,000,873;0,273;0,925;-0,059;-3,625;-469,125;99,313;21,063;-37,688;-14,063;272,000;6,125;-85,625;38398034;33703007;961;35,136;6
47,928;804,219;999,414;1,038;1,039;-0,625;27,187;-477,000;70,500;9,250;-39,500;-20,687;303,500;14,375;-95,375;38398034;33703007;961;35,136;6
47,928;804,456;997,866;0,699;0,859;-0,762;-23,563;-485,313;0,437;-12,688;-40,688;-16,250;351,125;8,500;-105,438;38398034;33703007;961;35,136;6
47,928;804,574;996,371;0,492;0,779;0,127;-93,812;-450,750;2,563;-21,750;-39,563;-3,000;43,313;-1,875;-101,500;38398034;33703007;961;35,136;6
47,945;804,843;994,746;0,701;0,949;0,469;-72,375;-463,063;37,000;-21,750;-39,250;7,250;84,750;-4,125;-90,813;38398068;33703004;962;35,231;6
47,928;804,811;993,349;0,655;1,107;0,687;5,500;-502,937;27,250;-14,750;-38,188;18,250;122,063;0,500;-86,688;38398079;33703003;962;35,057;8
47,928;805,048;991,856;0,308;0,951;0,251;49,563;-525,687;-10,813;-8,563;-38,188;21,000;165,875;2,063;-91,312;38398090;33703004;962;34,945;7
47,928;805,285;990,266;-0,357;0,910;-0,338;19,375;-537,687;1,437;23,000;-34,063;14,250;227,625;-3,500;-95,188;38398105;33703002;962;34,718;7
47,945;805,435;988,681;-0,392;0,881;-0,332;11,188;-553,812;72,812;27,062;-34,875;2,688;275,500;-3,625;-92,562;38398122;33702999;962;34,632;7
47,945;805,672;987,000;0,485;0,747;-0,140;75,875;-557,688;109,000;16,062;-38,563;-18,562;317,687;2,750;-95,750;38398134;33702999;962;34,438;7
47,945;805,790;985,364;0,424;0,999;-1,403;33,688;-575,250;38,000;-10,000;-41,063;-17,562;10,313;-0,062;-103,750;38398151;33702997;962;34,419;7
47,945;805,909;983,775;-0,027;0,587;-0,571;-61,625;-464,437;83,187;-20,250;-40,375;2,375;62,125;-5,375;-98,563;38398151;33702997;962;34,419;7
47,945;806,146;982,095;0,891;0,908;-0,306;-44,563;-439,125;138,437;-18,750;-37,063;13,000;92,688;2,125;-91,625;38398178;33702996;963;33,951;7
47,945;806,264;980,465;1,032;0,707;-0,206;0,000;-472,562;66,500;-18,750;-36,375;19,250;125,687;9,313;-94,938;38398178;33702996;963;33,951;7
47,945;806,264;979,027;1,039;1,188;-0,201;-21,937;-434,125;-9,313;-4,562;-33,500;27,187;168,000;6,000;-100,000;38398178;33702996;963;33,951;7
47,945;806,620;977,356;0,492;0,864;0,112;-42,125;-435,813;-30,438;14,875;-33,875;22,375;215,687;-2,688;-98,063;38398202;33702995;964;33,951;6
47,945;806,738;975,733;-0,133;0,879;0,293;-38,375;-422,875;-1,000;26,562;-35,000;2,000;257,062;-7,250;-90,625;38398212;33702996;964;33,951;6
47,928;806,825;974,196;0,073;0,759;0,224;-3,625;-416,312;38,813;22,250;-35,688;-18,062;289,312;-3,500;-84,938;38398222;33702997;964;33,951;6
47,945;806,975;972,671;0,201;1,070;-0,541;20,500;-409,938;43,563;13,750;-36,750;-25,187;318,500;3,313;-86,250;38398232;33702995;964;32,666;6
47,928;807,062;971,229;0,139;0,763;-0,500;-5,687;-396,813;48,250;-9,250;-38,688;-25,062;348,750;8,063;-90,625;38398242;33702995;964;32,321;6
47,945;807,212;969,793;0,667;0,863;-0,684;-43,750;-426,250;51,063;-25,000;-37,188;-13,688;21,437;10,938;-94,500;38398254;33702994;964;31,778;6
47,945;807,330;968,396;0,840;0,743;-0,473;-86,000;-472,687;43,437;-31,250;-32,750;6,250;61,688;10,938;-96,312;38398268;33702992;964;31,604;6
47,945;807,567;966,900;1,460;1,119;0,202;-74,750;-516,125;38,375;-22,187;-31,688;25,062;106,500;10,000;-96,813;38398282;33702993;964;31,419;6
47,945;807,686;965,439;1,401;0,715;0,126;-50,250;-576,625;-33,375;-13,250;-32,375;26,250;162,375;3,313;-98,250;38398282;33702993;965;31,419;7
47,945;807,922;963,877;0,692;0,785;0,319;-89,062;-548,125;-54,813;14,188;-34,250;22,750;220,250;-5,875;-90,625;38398294;33702992;965;31,419;7
47,945;808,041;962,351;0,727;0,703;0,677;-71,063;-578,062;-5,625;27,750;-35,500;-6,000;265,938;-3,188;-78,000;38398308;33702993;966;31,419;7
47,945;808,041;960,999;0,819;1,126;0,768;0,625;-594,937;-0,375;11,250;-34,000;-28,563;306,125;8,938;-77,812;38398320;33702993;966;31,419;6
47,945;808,278;959,545;0,537;0,866;0,312;33,875;-608,938;-39,500;-19,187;-33,875;-22,000;6,375;11,375;-94,437;38398331;33702994;966;31,419;7
47,945;808,515;957,989;0,100;0,855;0,178;6,500;-598,250;-48,375;-28,750;-35,375;6,000;71,813;-1,187;-101,500;38398342;33702994;966;30,538;8
47,945;808,633;956,466;-0,200;0,754;0,375;1,875;-553,937;19,687;-7,750;-33,875;24,500;131,562;-10,375;-95,375;38398353;33702995;966;30,341;7
47,963;808,902;954,807;0,168;0,948;0,125;48,688;-521,625;36,438;2,000;-34,688;25,875;175,937;-8,750;-89,563;38398363;33702997;966;29,988;8
47,945;808,870;953,358;0,232;0,975;-0,799;10,875;-494,875;13,812;20,500;-34,563;15,188;217,375;-5,750;-87,063;38398372;33703000;966;29,617;8
47,945;809,107;951,812;0,140;0,807;-0,270;-29,813;-431,250;52,938;26,000;-36,063;-5,562;251,000;0,375;-83,313;38398379;33703001;966;29,400;8
47,963;809,139;950,405;0,829;0,718;-0,283;-38,375;-447,500;52,625;12,750;-37,875;-21,187;279,500;10,188;-83,500;38398386;33703000;966;29,236;8
47,945;809,344;948,935;0,870;0,632;-0,296;-53,063;-473,500;28,875;-8,063;-37,188;-25,187;314,000;16,125;-89,250;38398386;33703000;966;29,236;8
47,963;809,494;947,465;1,345;1,025;0,259;-50,000;-507,625;8,375;-20,250;-35,375;-19,375;356,875;15,563;-97,125;38398393;33702998;966;29,232;8
47,945;809,581;946,065;0,952;0,798;0,125;-49,188;-547,625;-47,938;-31,688;-33,500;1,000;54,687;4,937;-102,062;38398400;33702996;965;29,232;9
47,945;809,818;944,564;0,389;0,874;0,431;-68,313;-545,687;-27,187;-19,187;-33,875;21,000;114,375;-6,687;-95,188;38398407;33702994;965;29,232;9
47,945;809,936;943,096;0,409;0,779;0,704;-1,437;-563,687;24,875;4,562;-36,063;23,062;161,625;-6,062;-85,750;38398416;33702992;964;29,232;9
47,963;810,086;941,625;0,292;1,094;0,378;56,313;-545,375;0,500;20,687;-37,875;8,875;204,563;-0,750;-86,125;38398423;33702992;963;30,247;10
47,945;810,173;940,224;-0,064;0,871;-0,221;45,625;-560,000;-1,500;22,875;-38,250;0,062;251,750;0,000;-90,875;38398433;33702993;963;30,071;10
47,945;810,410;938,720;-0,124;0,967;-0,658;9,188;-594,062;35,000;16,687;-39,688;-16,250;302,687;-0,562;-92,812;38398444;33702994;963;30,026;10
47,963;810,679;937,077;0,371;0,842;-0,503;-0,062;-642,750;91,625;-4,562;-41,188;-20,250;353,750;2,563;-93,375;38398444;33702994;963;30,026;10
47,945;810,765;935,504;0,943;1,049;-0,876;26,437;-681,500;82,063;-24,687;-37,500;-1,187;49,188;4,687;-99,313;38398463;33702994;0;29,932;7
47,963;810,916;933,933;0,195;0,507;-0,586;-23,750;-657,437;78,188;-15,875;-32,000;27,187;116,063;-1,062;-101,375;38398474;33702995;0;29,960;7
47,963;811,034;932,402;0,419;0,860;-0,676;-9,438;-580,625;143,937;-2,688;-32,500;29,375;167,687;0,312;-98,313;38398484;33702995;0;29,641;7
47,963;811,271;930,774;1,042;0,815;-0,592;44,250;-624,625;105,875;16,687;-35,063;17,375;211,812;3,063;-101,688;38398494;33702995;0;29,528;7
47,963;811,271;929,327;0,432;0,832;-0,670;-22,375;-566,437;30,062;20,687;-39,375;-0,750;295,875;-7,750;-102,812;38398494;33702995;0;29,528;7
47,963;811,626;927,646;0,358;0,784;-0,068;-41,500;-510,500;68,313;9,250;-40,875;-18,500;342,562;-9,375;-91,312;38398515;33702996;963;29,502;7
47,945;811,594;926,183;0,486;0,989;0,261;13,187;-500,438;73,813;-10,750;-40,063;-18,000;17,562;-0,875;-85,813;38398515;33702996;963;29,502;7
47,963;811,982;924,450;0,472;1,019;0,203;70,875;-496,063;26,187;-25,062;-37,188;-0,687;54,813;4,875;-92,125;38398515;33702996;963;29,502;7
47,963;811,982;922,900;-0,416;1,000;-0,105;67,750;-489,313;-14,750;-17,750;-33,188;22,000;97,375;0,437;-100,250;38398515;33702996;963;29,502;7
47,963;812,219;921,258;-0,949;0,703;-0,102;47,125;-423,000;53,188;-7,187;-32,000;30,750;146,937;-7,125;-102,375;38398549;33702994;964;29,502;8
47,963;812,337;919,663;-0,408;0,699;-0,730;56,625;-393,562;133,125;13,375;-29,500;29,500;181,625;-6,562;-102,313;38398563;33702996;964;29,502;9
47,963;812,455;918,117;0,341;0,765;-1,092;51,750;-453,563;145,625;23,250;-32,000;18,000;215,312;-2,438;-104,000;38398574;33702995;964;30,036;8
47,963;812,574;916,620;0,845;0,897;-1,417;-2,313;-545,063;94,125;22,875;-36,750;2,000;260,687;-3,313;-105,250;38398586;33702990;964;30,152;8
47,963;812,929;914,891;0,613;0,631;-0,859;-56,938;-597,750;96,438;10,563;-41,063;-17,187;314,750;-6,375;-97,688;38398598;33702991;964;30,167;8
47,963;812,929;913,348;0,861;0,850;-0,344;-27,187;-596,687;132,250;-2,188;-41,500;-20,250;358,563;0,875;-89,813;38398607;33702990;964;29,943;8
47,963;813,048;911,855;1,131;0,966;-0,467;33,875;-634,000;76,938;-26,063;-37,063;-5,562;43,063;9,375;-95,875;38398618;33702988;964;30,184;8
47,963;813,166;910,407;0,629;0,973;-0,253;17,625;-601,813;10,250;-22,187;-30,875;24,188;104,813;2,250;-105,375;38398618;33702988;964;30,184;8
47,980;813,317;908,966;0,346;0,858;0,149;5,625;-584,062;2,563;8,688;-27,875;32,063;171,062;-10,563;-102,313;38398629;33702986;965;30,184;10
47,963;813,403;907,601;-0,061;0,960;0,553;30,687;-566,938;11,937;21,875;-28,563;23,563;225,563;-16,125;-91,063;38398641;33702985;964;30,184;10
47,963;813,640;906,137;-0,470;1,021;0,419;62,500;-547,313;14,188;32,188;-30,500;-5,687;269,812;-11,875;-82,875;38398653;33702981;964;30,173;9
47,963;813,877;904,573;-0,283;0,667;0,075;106,313;-506,187;55,750;16,750;-33,375;-26,562;306,813;-2,625;-84,188;38398665;33702976;964;29,899;9
47,963;813,995;903,044;-0,260;0,723;-0,122;138,125;-532,812;52,500;-8,500;-39,250;-21,250;346,687;2,563;-95,687;38398675;33702976;964;30,025;9
47,963;813,995;901,689;-0,471;0,847;-0,816;120,000;-575,938;27,687;-21,750;-38,563;3,563;43,375;-4,500;-107,563;38398684;33702974;964;30,095;9
47,980;814,264;900,198;-0,523;0,758;-0,492;68,688;-600,000;65,813;-18,750;-36,750;19,187;110,938;-16,875;-105,125;38398684;33702974;964;30,095;9
47,980;814,501;898,605;0,137;1,111;-0,655;78,000;-621,375;97,812;17,375;-31,000;25,875;178,562;-15,500;-90,625;38398684;33702974;964;30,095;9
47,980;814,620;897,048;0,599;0,931;-0,634;57,250;-662,812;44,125;29,188;-32,375;3,188;220,812;-7,937;-86,063;38398718;33702973;963;29,786;9
47,980;814,738;895,530;0,404;0,810;-0,341;3,188;-656,187;26,312;25,062;-35,688;-11,063;271,937;-0,562;-84,625;38398723;33702972;964;28,528;9
47,980;814,856;894,050;0,707;1,068;0,116;17,437;-626,937;44,062;1,687;-38,250;-26,063;320,125;6,812;-88,125;38398723;33702972;964;28,528;9
47,980;815,093;892,474;0,923;1,006;0,116;42,500;-622,062;-14,750;-24,250;-36,750;-11,875;14,750;5,937;-98,250;38398733;33702972;963;28,549;7
47,980;815,330;890,799;0,550;0,824;0,031;-4,000;-592,562;-65,312;-20,000;-36,063;16,562;82,000;-7,562;-100,375;38398743;33702972;963;28,512;8
47,980;815,449;889,167;0,357;1,048;0,959;-33,625;-592,438;-46,375;5,687;-36,063;23,250;140,625;-16,625;-86,375;38398753;33702972;963;28,765;9
47,980;815,567;887,580;0,668;1,056;1,127;15,875;-558,625;-25,687;17,000;-36,750;13,500;183,312;-9,063;-72,750;38398766;33702972;963;29,526;9
47,997;815,718;886,002;0,503;0,833;0,876;75,500;-497,187;-97,562;24,500;-36,875;-7,187;221,625;0,312;-74,000;38398778;33702972;963;29,986;9
47,980;815,804;884,509;0,047;0,691;0,669;45,625;-506,125;-147,562;18,875;-37,250;-21,500;267,313;-0,875;-80,312;38398787;33702974;963;29,989;9
47,980;816,041;882,924;-0,297;0,738;0,979;19,875;-580,312;-97,750;6,000;-35,563;-28,187;318,437;-4,437;-80,062;38398787;33702974;963;29,989;9
47,980;816,159;881,384;0,103;0,858;0,862;76,000;-596,000;-45,937;-6,062;-36,688;-27,250;8,000;-0,437;-81,312;38398809;33702976;963;30,343;9
47,980;816,278;879,890;-0,729;1,198;0,153;93,187;-551,937;-95,000;-23,000;-38,375;-4,562;59,375;-2,500;-89,375;38398809;33702976;963;30,343;9
47,980;816,396;878,439;-0,426;0,731;-0,025;13,625;-583,500;-45,312;-13,063;-38,750;17,062;115,437;-9,313;-88,125;38398830;33702980;963;30,397;9
47,980;816,515;877,030;0,092;1,012;0,350;24,125;-537,875;41,250;11,063;-38,750;18,000;159,312;-4,000;-82,187;38398841;33702983;963;30,280;9
47,980;816,752;875,523;0,636;0,775;-0,140;63,188;-520,937;23,062;20,250;-38,375;4,187;196,937;4,250;-87,000;38398841;33702983;963;30,280;9
47,980;816,870;874,054;0,784;1,119;-0,379;41,750;-499,437;-42,063;18,750;-39,500;-3,375;243,125;2,063;-95,375;38398851;33702984;965;30,280;9
47,997;817,021;872,585;0,384;0,806;0,063;-24,188;-496,063;-80,813;14,000;-40,188;-14,375;296,813;-8,188;-93,875;38398861;33702986;965;29,978;10
47,980;817,107;871,189;0,012;0,912;0,987;-50,813;-472,687;-36,563;4,875;-39,500;-23,687;341,812;-12,188;-81,250;38398869;33702987;965;29,651;10
47,980;817,226;869,828;0,399;0,792;1,073;42,250;-384,750;-24,437;-12,375;-38,375;-22,750;12,688;-5,625;-75,125;38398878;33702988;965;29,330;9
47,980;817,581;868,232;-0,207;0,871;0,351;96,000;-331,312;-102,812;-20,375;-39,000;-7,687;53,500;-5,437;-82,063;38398889;33702988;965;29,315;8
47,997;817,732;866,632;-0,795;0,711;0,095;64,563;-351,062;-79,188;-14,875;-40,563;8,250;89,500;-10,500;-84,750;38398900;33702989;965;29,554;8
47,980;817,936;864,968;-0,566;0,567;0,153;67,187;-302,313;-4,312;0,062;-39,375;16,750;119,250;-11,000;-84,313;38398908;33702989;965;29,449;9
47,980;818,055;863,345;-0,436;0,761;-0,089;75,500;-321,250;48,000;9,563;-37,563;19,875;142,250;-6,562;-86,375;38398908;33702989;965;29,449;9
47,997;818,205;861,727;0,335;1,019;-0,475;82,375;-342,313;43,000;12,562;-37,563;18,062;166,687;-1,437;-91,625;38398931;33702990;966;29,284;8
47,997;818,324;860,156;0,120;0,926;-0,882;22,000;-359,500;1,375;19,875;-35,750;14,063;198,688;-2,250;-95,438;38398940;33702990;966;29,143;8
47,980;818,529;858,531;0,066;0,746;-0,270;-33,938;-320,000;14,625;24,687;-36,563;0,750;230,000;-4,187;-92,438;38398951;33702990;966;29,119;8
47,980;818,647;856,954;0,346;0,986;0,050;-32,000;-311,000;42,438;21,375;-37,250;-13,750;254,125;-1,375;-87,625;38398962;33702991;966;29,354;8
47,980;818,766;855,425;0,309;0,976;0,126;-6,562;-319,375;29,312;9,250;-38,750;-21,750;274,188;2,875;-86,438;38398971;33702991;966;29,100;8
47,980;818,884;853,944;0,049;1,243;0,205;12,625;-330,625;25,062;0,875;-39,375;-24,500;298,875;6,375;-89,000;38398971;33702991;966;29,100;8
47,997;819,390;852,059;-0,128;1,097;-0,391;27,375;-334,750;15,813;-18,875;-39,375;-15,062;339,562;6,875;-97,250;38398981;33702990;966;29,100;9
47,980;819,239;850,536;-0,303;0,880;-0,536;-26,125;-293,250;65,563;-25,187;-36,750;-0,062;5,875;5,375;-100,188;38398991;33702989;967;29,100;9
47,980;819,358;849,065;0,219;0,774;-0,166;-18,187;-290,687;88,938;-27,000;-36,500;4,375;32,125;7,750;-101,062;38399002;33702991;967;28,960;9
47,997;819,745;847,329;1,243;0,904;-0,521;-14,563;-321,437;16,000;-26,562;-32,750;17,687;56,250;7,562;-103,688;38399012;33702991;967;28,960;9
47,997;819,745;845,780;0,870;0,988;-0,346;-73,188;-284,250;-53,938;-16,375;-30,250;26,875;91,813;-0,437;-102,000;38399023;33702991;968;29,150;9
47,997;819,982;844,144;0,356;0,525;0,124;-115,250;-290,375;-68,000;0,062;-34,250;27,000;124,812;-9,375;-91,438;38399032;33702990;968;29,302;9
47,997;820,101;842,559;-0,003;0,895;1,461;-62,688;-346,437;-24,500;16,000;-37,563;14,875;151,687;-10,875;-77,000;38399041;33702991;968;29,049;10
47,997;820,338;840,886;0,340;0,579;1,006;75,188;-347,312;-30,000;19,250;-39,063;6,875;176,750;-3,375;-73,313;38399041;33702991;968;29,049;10
47,997;820,456;839,266;0,215;0,966;0,101;112,437;-334,750;-92,000;23,250;-37,688;-3,563;205,125;-1,750;-81,312;38399052;33702990;968;26,485;10
47,997;820,575;837,699;-0,757;0,627;-0,609;24,813;-340,312;-83,688;23,687;-36,688;-11,063;240,938;-7,500;-86,125;38399059;33702991;968;25,682;10
47,997;820,811;836,045;-0,776;0,681;-0,142;-50,250;-297,250;6,562;21,500;-33,563;-21,750;270,438;-8,750;-80,312;38399059;33702991;968;25,682;10
47,997;820,930;834,444;0,258;1,204;0,474;-30,375;-262,062;71,500;8,250;-34,063;-30,250;285,062;0,500;-74,625;38399064;33702992;968;25,682;10
47,980;821,016;832,933;0,777;1,010;0,189;35,500;-203,812;-25,875;-2,250;-34,000;-33,000;298,187;8,688;-77,063;38399071;33702994;968;25,682;9
47,997;821,285;831,298;0,387;0,782;-0,004;23,437;-172,750;-106,313;-14,563;-34,000;-27,187;321,500;5,750;-82,562;38399080;33702995;968;23,750;9
47,997;821,404;829,713;-0,746;0,855;0,354;13,750;-158,063;-79,500;-16,375;-38,000;-21,375;347,812;-1,562;-84,437;38399089;33702997;968;23,802;8
47,997;821,522;828,179;-0,770;0,746;-0,056;27,313;-187,500;21,500;-16,000;-38,375;-15,062;10,750;-2,250;-85,687;38399097;33702999;969;23,719;8
47,980;821,727;826,594;-0,169;0,620;-0,467;27,875;-243,188;105,375;-20,062;-39,500;-12,063;22,500;5,125;-88,437;38399108;33703000;969;23,783;8
47,997;821,878;825,021;0,788;0,966;-0,609;25,062;-284,375;98,063;-28,062;-35,500;-3,063;35,875;13,938;-94,938;38399108;33703000;969;23,783;8
47,997;821,878;823,634;1,038;0,761;-0,780;-24,188;-357,688;14,875;-31,375;-30,000;15,500;63,563;13,875;-102,750;38399119;33702999;969;23,783;9
47,997;822,115;822,155;0,397;0,503;-0,431;-104,438;-376,250;-18,687;-19,250;-29,687;28,250;106,813;5,125;-102,250;38399129;33702999;969;23,783;8
47,997;822,351;820,582;0,768;1,029;0,580;-86,500;-395,375;37,563;1,187;-33,688;28,250;150,000;1,937;-91,438;38399138;33703001;969;23,783;8
47,997;822,470;819,051;0,765;0,981;0,650;19,812;-383,312;-1,562;12,688;-38,875;15,875;182,625;3,938;-91,063;38399158;33703003;969;23,946;7
47,997;822,588;817,563;0,153;0,934;0,106;38,250;-358,062;-64,813;21,875;-38,188;6,062;219,437;-1,562;-95,312;38399168;33703002;969;23,998;7
47,997;822,707;816,117;-1,026;0,771;0,172;24,125;-336,938;-4,625;24,375;-37,000;-0,187;257,500;-8,375;-94,813;38399168;33703002;969;23,998;7
48,014;823,095;814,405;-0,427;0,613;-0,106;52,938;-283,750;72,125;22,500;-37,688;-12,500;282,375;-6,687;-94,563;38399178;33703001;969;23,998;7
47,997;823,062;812,906;0,099;0,527;-0,309;20,312;-325,000;100,687;11,375;-39,875;-19,187;303,812;-1,375;-96,312;38399178;33703001;969;23,998;7
47,997;823,299;811,316;0,507;0,954;-0,851;-8,313;-357,312;90,750;-5,750;-41,750;-17,000;329,187;3,313;-97,625;38399201;33703005;970;0,000;7
47,997;823,536;809,633;1,520;1,310;-0,286;-30,687;-453,437;16,062;-18,875;-39,188;-8,500;4,812;3,313;-98,187;38399211;33703006;970;24,745;8
47,997;823,536;808,135;1,023;0,844;0,010;-64,000;-536,188;-46,938;-23,000;-39,563;-0,500;56,375;-4,062;-93,875;38399221;33703007;971;24,630;8
47,997;823,773;806,546;1,016;0,889;0,676;-67,688;-567,500;-22,125;-17,500;-40,000;12,750;105,563;-5,625;-82,375;38399231;33703008;971;24,543;8
47,997;824,010;804,868;1,135;0,700;0,609;-33,938;-501,625;-48,500;-1,000;-41,500;12,750;146,187;0,437;-76,438;38399241;33703009;971;24,556;8
47,997;824,128;803,238;0,672;0,634;0,370;-48,375;-453,500;-79,250;13,000;-41,875;5,687;184,125;4,687;-75,063;38399251;33703010;971;24,482;8
47,997;824,128;801,797;0,820;0,690;0,625;-54,250;-479,563;-71,625;18,500;-39,750;-11,063;221,875;9,063;-75,125;38399261;33703010;971;24,278;8
48,014;824,398;800,230;0,700;0,865;0,586;-45,375;-511,062;-67,563;13,250;-40,063;-19,562;262,375;12,750;-79,375;38399261;33703010;971;24,278;8
47,997;824,602;798,611;0,657;0,732;0,588;-38,688;-538,875;-56,813;-3,188;-37,500;-27,062;308,062;13,000;-86,562;38399273;33703010;971;24,278;8
48,014;824,753;797,001;0,561;0,766;0,419;-39,000;-537,000;-41,188;-21,063;-36,750;-17,375;358,750;8,875;-92,438;38399285;33703010;971;24,278;8
48,014;824,990;795,303;0,602;0,820;0,504;-24,687;-550,563;-22,500;-27,375;-36,000;4,875;52,000;3,125;-94,563;38399295;33703012;971;24,278;9
48,014;824,990;793,795;0,658;0,889;0,177;-15,125;-531,313;-32,813;-14,875;-35,688;22,875;105,062;-2,625;-93,313;38399304;33703013;971;25,191;8
48,014;825,227;792,200;0,342;0,788;0,152;-33,375;-530,000;-20,937;-3,563;-37,063;23,250;154,062;-5,875;-87,250;38399313;33703015;971;24,948;8
48,014;825,345;790,655;0,359;0,909;0,175;-34,188;-524,687;16,000;16,687;-37,500;14,000;195,000;-0,937;-80,813;38399321;33703017;971;24,796;8
48,014;825,582;789,022;0,497;0,775;0,184;0,187;-517,063;33,375;20,375;-39,250;-6,750;239,125;10,750;-83,750;38399330;33703018;971;24,737;8
48,014;825,819;787,301;0,703;0,763;-0,160;1,500;-489,562;-0,625;6,000;-40,750;-19,687;279,625;13,187;-94,500;38399339;33703016;972;24,876;8
48,014;825,819;785,770;0,297;0,661;-0,449;-49,500;-430,813;-9,313;-11,188;-41,188;-17,500;325,812;6,750;-99,687;38399339;33703016;972;24,876;8
48,014;825,938;784,293;0,366;0,793;-0,319;-87,688;-385,750;38,000;-19,187;-39,688;-9,063;5,000;3,188;-95,687;38399339;33703016;972;24,876;8
48,014;826,056;782,864;1,219;0,977;-0,139;-80,937;-409,438;45,188;-25,062;-36,750;1,187;37,438;5,687;-90,625;38399369;33703007;972;24,876;8
48,014;826,411;781,208;1,676;0,921;-0,174;-78,375;-469,688;-12,562;-26,500;-36,750;6,875;74,938;7,312;-88,688;38399384;33703002;973;24,876;9
48,014;826,411;779,735;0,841;0,354;-0,022;-132,000;-443,000;-41,438;-15,875;-37,750;18,500;112,688;6,000;-84,938;38399398;33702999;973;24,876;8
48,014;826,648;778,171;1,038;0,875;1,108;-129,250;-469,437;-7,687;2,000;-41,188;15,375;149,125;9,813;-77,500;38399407;33702995;973;25,830;7
48,014;826,885;776,516;1,397;0,755;0,854;-37,438;-500,000;-45,188;9,000;-43,688;-0,187;186,000;17,875;-80,875;38399419;33702991;974;26,100;7
48,014;827,004;774,908;0,687;0,751;0,447;-48,063;-405,937;-126,625;8,688;-42,688;-9,750;229,250;13,313;-89,625;38399429;33702988;974;26,535;7
48,014;827,122;773,348;-0,074;0,611;0,474;-94,875;-421,750;-105,625;9,000;-41,500;-15,563;276,812;2,188;-88,250;38399445;33702983;974;26,735;7
48,014;827,359;771,701;0,159;0,877;1,084;-44,938;-417,687;-18,187;2,750;-39,063;-25,000;316,500;0,312;-81,000;38399462;33702980;974;26,663;7
48,014;827,478;770,103;0,267;0,967;0,643;36,250;-388,375;-12,188;-14,500;-37,063;-21,375;347,250;5,000;-82,187;38399462;33702980;974;26,663;7
48,014;827,833;768,281;0,124;0,797;0,046;46,188;-379,062;-45,813;-25,500;-37,000;-7,687;20,000;5,062;-89,437;38399473;33702978;974;26,663;9
48,014;827,952;766,511;-0,136;0,818;-0,370;-1,750;-381,687;-44,188;-21,750;-37,375;11,375;58,313;-0,187;-93,125;38399486;33702974;975;26,663;9
48,014;827,952;764,942;0,184;1,064;-0,020;-47,625;-356,687;8,313;-17,750;-37,688;15,875;92,562;-2,750;-89,313;38399496;33702968;974;26,663;7
48,014;828,188;763,293;0,945;0,910;0,424;-25,312;-378,250;-3,000;-6,375;-39,188;19,875;121,438;-0,062;-84,813;38399507;33702963;974;26,663;8
48,014;828,425;761,562;0,965;0,622;0,421;-0,562;-408,312;-74,375;6,000;-39,563;15,875;155,937;0,062;-84,250;38399514;33702962;974;23,306;8
48,031;828,576;759,853;0,450;0,567;0,514;-30,312;-429,438;-120,625;21,500;-38,063;6,062;197,812;-4,937;-81,562;38399529;33702956;975;23,228;8
48,014;828,662;758,245;0,083;0,784;1,306;-10,500;-496,750;-86,813;25,062;-37,000;-3,688;239,188;-5,625;-74,625;38399547;33702949;975;23,563;8
48,014;828,899;756,558;0,548;0,327;0,927;68,250;-437,687;-125,063;11,250;-33,375;-29,062;288,375;-1,312;-76,313;38399547;33702949;975;23,563;8
48,014;828,899;755,072;0,124;0,412;0,628;43,000;-400,563;-183,437;2,375;-35,188;-29,875;331,312;-7,937;-78,813;38399570;33702944;975;23,650;8
48,014;829,136;753,504;-1,113;0,810;1,433;61,063;-529,125;-113,000;-6,750;-38,063;-24,562;16,500;-12,188;-74,313;38399570;33702944;974;23,650;9
48,014;829,373;751,852;-0,095;0,559;0,902;150,250;-592,063;-79,500;-15,875;-41,063;-9,500;62,438;-4,875;-76,562;38399570;33702944;974;23,650;9
48,031;829,643;750,078;-0,128;0,523;0,547;173,312;-634,562;-134,750;-8,563;-41,250;13,063;118,625;-7,000;-87,125;38399596;33702938;975;23,650;9
48,031;829,643;748,501;-0,968;0,975;0,208;57,313;-729,187;-133,625;21,063;-34,063;18,000;189,125;-17,437;-83,688;38399610;33702935;976;23,650;8
48,014;829,847;746,881;-0,012;0,771;1,017;51,000;-679,500;-12,375;31,688;-31,187;0,687;242,812;-7,437;-70,563;38399626;33702932;977;22,700;8
48,014;830,202;745,040;0,498;1,214;0,252;92,750;-626,125;-47,250;16,375;-32,188;-27,187;285,875;6,937;-78,563;38399643;33702929;978;22,926;8
48,014;830,202;743,399;-0,158;0,791;-0,180;14,250;-608,000;-70,875;-13,750;-37,000;-25,187;340,812;5,125;-90,438;38399665;33702921;979;23,026;9
48,014;830,439;741,680;-0,076;0,964;0,443;-14,437;-542,500;16,187;-23,750;-37,688;-2,000;34,063;1,562;-91,750;38399687;33702913;979;22,076;9
48,031;830,590;739,985;0,399;0,876;0,253;44,188;-514,687;28,875;-17,750;-35,875;16,187;78,875;2,125;-94,938;38399713;33702904;981;21,042;10
48,014;830,676;738,393;0,407;0,887;0,121;62,375;-504,250;-25,438;-10,375;-34,750;24,188;129,687;-3,813;-100,125;38399735;33702897;981;20,415;10
48,014;830,676;737,002;0,090;0,768;0,079;30,000;-489,750;-60,312;13,375;-31,500;26,875;185,000;-15,250;-97,125;38399735;33702897;981;20,415;10
48,014;830,913;735,527;-0,290;0,832;0,451;2,375;-459,938;-29,500;32,000;-29,375;7,750;229,563;-20,375;-83,938;38399752;33702892;982;20,415;9
48,014;831,032;734,101;-0,083;0,945;0,251;17,687;-429,687;18,437;30,875;-29,375;-18,000;259,500;-12,375;-73,063;38399767;33702887;982;20,415;9
48,014;831,269;732,585;0,108;1,019;-0,029;42,438;-419,750;28,563;10,687;-32,000;-30,875;283,937;1,125;-72,438;38399783;33702881;982;20,415;9
48,014;831,505;730,979;0,197;0,974;-0,293;45,438;-421,187;24,375;-2,375;-33,063;-31,250;309,625;12,125;-80,813;38399799;33702877;983;20,615;9
48,014;831,505;729,553;0,334;0,882;-0,305;25,937;-429,875;12,125;-23,750;-34,500;-18,875;341,687;15,500;-93,750;38399808;33702869;983;19,902;9
48,031;831,775;727,999;0,323;0,778;-0,386;-5,375;-448,562;3,375;-31,375;-32,688;3,188;24,375;9,938;-103,438;38399827;33702859;982;19,076;9
48,014;831,979;726,391;0,173;0,813;-0,225;-25,812;-457,937;14,625;-21,500;-31,250;23,687;75,500;0,187;-105,313;38399844;33702851;982;18,490;9
48,014;832,216;724,692;0,108;0,842;-0,109;-11,750;-434,312;48,063;-0,250;-31,250;29,375;131,000;-6,875;-99,750;38399857;33702849;982;18,059;9
48,014;832,453;722,903;0,039;1,001;-0,160;3,438;-423,000;62,125;15,875;-33,563;22,375;164,062;-6,875;-95,188;38399870;33702846;983;17,674;8
48,014;832,572;721,166;0,028;0,869;-0,368;12,063;-415,062;73,500;24,750;-35,750;6,750;196,875;-3,313;-92,500;38399884;33702844;983;17,550;8
48,014;832,809;719,347;0,099;0,659;-0,222;29,188;-401,375;87,688;22,875;-37,875;-3,000;227,062;2,063;-93,625;38399896;33702842;983;17,500;8
48,014;832,927;717,590;0,211;0,694;0,005;68,375;-391,875;72,438;13,000;-42,250;-13,063;258,062;5,437;-100,125;38399896;33702842;983;17,500;8
48,014;832,927;716,040;0,385;1,125;-0,061;104,438;-383,000;16,500;-0,250;-44,062;-11,250;296,813;1,062;-110,125;38399896;33702842;983;17,500;8
48,014;833,046;714,553;0,178;0,994;-0,312;84,938;-370,687;-60,500;-4,250;-44,062;-0,187;350,187;-14,000;-115,938;38399896;33702842;983;17,500;8
48,014;832,690;713,676;-0,591;0,933;-0,307;-3,750;-318,500;-65,500;3,063;-43,250;5,062;38,625;-32,000;-108,187;38399896;33702842;983;17,500;8
48,014;832,927;712,679;-0,461;1,019;0,051;-37,188;-299,750;14,313;5,062;-43,688;2,063;63,063;-38,000;-86,875;38399896;33702842;983;17,500;8
48,014;833,164;711,570;0,165;0,932;0,416;-18,875;-348,313;48,375;5,187;-43,688;-2,750;77,187;-28,250;-66,188;38399896;33702842;983;17,500;8
48,014;833,519;710,226;0,783;0,909;0,399;14,688;-314,875;9,438;-0,562;-44,500;-6,750;90,750;-11,188;-57,313;38402450;33704879;1653;0,000;9
48,031;833,315;709,241;0,745;0,718;0,138;2,000;-223,750;-102,188;-2,063;-44,500;-4,500;107,375;-2,250;-56,438;38402466;33704896;1658;0,000;9
48,014;833,401;708,295;0,381;0,571;0,320;-42,875;-194,375;-144,437;0,062;-44,500;-3,563;127,937;-1,500;-53,813;38402473;33704898;1659;0,000;9
48,031;833,789;707,078;0,105;0,565;0,888;-56,875;-214,312;-149,937;7,375;-43,000;-9,000;149,437;-0,500;-48,750;38402481;33704900;1660;0,000;9
48,014;833,875;705,898;0,316;0,758;1,306;-23,187;-263,000;-117,750;15,062;-40,000;-17,000;170,125;5,500;-45,813;38402487;33704902;1660;13,377;9
48,014;834,230;704,484;1,087;0,793;0,868;35,125;-281,062;-147,250;13,688;-36,500;-25,375;191,500;13,375;-51,188;38402491;33704902;1660;13,505;9
48,014;834,586;702,830;0,899;0,671;0,085;1,125;-282,000;-228,062;10,375;-34,250;-28,000;221,000;12,875;-60,937;38402492;33704898;1660;14,244;9
48,014;834,704;701,178;0,106;0,560;0,024;-109,125;-297,937;-216,625;7,750;-33,563;-30,250;256,813;6,687;-61,063;38402494;33704895;1660;14,638;9
48,014;834,823;699,541;-0,242;0,882;1,085;-141,562;-297,750;-99,875;2,688;-28,250;-37,000;285,687;9,500;-52,438;38402494;33704895;1657;14,638;11
48,014;834,704;698,191;0,304;1,044;0,819;-48,625;-284,313;-10,438;-13,750;-18,875;-40,188;302,062;22,750;-50,125;38402498;33704892;1656;14,638;11
48,014;835,178;696,483;0,354;1,153;-0,529;-15,188;-311,875;-3,188;-37,000;-14,875;-19,250;320,250;41,500;-68,375;38402499;33704888;1655;14,638;10
48,014;834,941;695,201;0,068;0,680;-0,415;-98,187;-192,562;48,750;-44,375;-12,188;1,062;342,750;48,625;-92,625;38402499;33704888;1655;14,638;10
48,014;834,823;694,212;0,471;0,677;-0,133;-113,312;-142,750;87,125;-42,875;-8,688;14,750;353,875;53,313;-101,188;38402501;33704883;1653;15,498;11
48,014;835,059;693,110;0,695;0,525;0,015;-103,375;-126,750;77,250;-40,250;-4,562;21,750;3,250;57,250;-110,750;38402501;33704883;1653;15,498;11
48,014;835,533;691,650;0,735;0,375;-0,111;-93,000;-123,812;51,500;-40,250;-6,875;27,062;13,812;57,438;-121,500;38402501;33704883;1653;15,498;11
48,014;835,652;690,206;0,900;0,297;-0,142;-87,875;-138,250;9,688;-34,063;-6,187;32,375;28,563;52,938;-129,250;38402502;33704880;1652;15,833;11
48,014;836,126;688,403;0,927;0,247;-0,302;-95,250;-137,750;-50,750;-28,187;-9,250;38,188;51,625;43,500;-130,625;38402504;33704878;1652;16,199;11
48,014;836,481;686,354;0,834;0,158;-0,296;-116,375;-121,812;-127,000;-15,687;-15,875;40,688;84,250;30,187;-124,500;38402506;33704876;1652;16,899;11
48,014;837,073;683,782;0,656;0,318;-0,124;-143,125;-131,437;-180,500;-2,500;-24,750;35,875;121,750;12,813;-113,875;38402506;33704872;1652;17,537;11
48,014;837,310;681,077;-0,191;0,353;0,222;-158,312;-179,000;-168,062;3,688;-29,562;31,375;157,562;-6,312;-100,500;38402506;33704872;1652;17,537;11
48,014;837,310;678,584;-0,502;0,921;1,106;-101,438;-198,812;-86,688;21,000;-32,563;17,062;182,562;-17,937;-85,375;38402506;33704867;1648;17,537;11
48,014;837,547;676,051;-0,142;1,073;0,662;-36,375;-198,500;-37,813;31,000;-31,688;2,250;197,875;-19,625;-74,813;38402505;33704861;1647;17,537;11
48,014;837,547;673,816;-0,616;1,348;0,430;-6,125;-208,312;-6,062;33,875;-29,500;-9,500;211,625;-15,938;-67,063;38402504;33704854;1645;17,537;11
48,014;837,666;671,732;-0,248;1,037;0,228;8,563;-194,812;21,750;28,750;-29,875;-20,187;222,062;-7,812;-63,750;38402502;33704848;1644;21,920;11
48,014;837,784;669,794;-0,141;0,961;-0,124;4,750;-196,187;42,313;22,375;-31,375;-24,188;229,875;1,937;-63,750;38402503;33704842;1642;22,024;11
48,014;837,784;668,146;0,034;0,653;-0,108;-6,437;-239,125;68,188;11,375;-33,500;-30,000;236,812;14,063;-65,688;38402503;33704837;1642;21,868;11
48,014;837,784;666,760;0,557;0,611;-0,303;4,062;-323,875;82,438;-4,687;-33,063;-30,375;245,750;28,937;-73,563;38402503;33704831;1642;22,026;11
48,031;838,054;665,267;0,816;0,716;-0,609;-0,875;-354,937;61,438;-23,750;-32,250;-23,000;261,312;38,875;-94,313;38402503;33704831;1642;22,026;11
48,014;838,140;663,889;0,923;0,489;-0,510;-26,688;-379,125;24,687;-35,750;-27,687;-3,250;290,125;33,563;-116,625;38402502;33704823;1638;22,026;11
48,031;838,646;662,115;0,780;0,489;-0,718;-73,938;-477,500;-12,000;-37,563;-25,062;5,875;349,875;13,438;-126,750;38402501;33704816;1636;22,026;11
48,014;839,087;660,025;0,329;0,537;-0,088;-102,313;-480,875;38,500;-12,000;-28,875;32,500;90,312;-16,500;-112,750;38402500;33704809;1634;22,026;11
48,031;839,239;657,961;0,368;0,660;0,000;-70,937;-460,688;83,125;0,750;-31,500;29,250;124,563;-19,625;-93,313;38402498;33704795;1632;21,035;12
48,031;839,712;655,542;0,460;0,828;0,047;-21,250;-482,188;97,562;15,875;-37,000;16,500;151,875;-7,875;-78,875;38402498;33704795;1629;21,035;12
48,014;839,798;653,251;0,483;1,172;0,100;32,188;-471,938;82,313;16,687;-41,375;0,500;177,375;8,438;-79,875;38402496;33704789;1627;21,035;12
48,031;839,949;651,031;0,614;1,357;0,033;75,563;-474,312;40,500;10,062;-43,188;-7,875;208,375;16,250;-94,750;38402495;33704781;1624;21,035;12
48,031;839,831;649,246;0,523;1,214;-0,082;79,875;-460,937;-28,312;3,750;-45,000;-8,375;256,250;7,062;-111,125;38402494;33704773;1622;20,792;12
48,031;840,186;647,274;0,106;1,084;-0,063;42,187;-477,250;-83,250;0,187;-44,563;-3,750;324,188;-14,563;-114,625;38402494;33704765;1622;21,329;12
48,031;839,949;645,871;-0,142;0,678;0,370;-11,188;-461,750;-76,813;4,562;-44,563;-3,375;21,562;-34,313;-97,812;38402494;33704757;1622;21,218;12
48,014;840,272;644,298;0,068;0,650;1,002;-14,063;-463,750;-46,813;7,187;-43,750;-9,063;55,000;-34,188;-67,250;38402494;33704750;1622;20,726;12
48,031;840,542;642,622;0,309;1,028;2,197;54,625;-418,562;-55,688;3,188;-43,500;-13,063;79,188;-16,250;-50,875;38402494;33704744;1622;20,376;12
48,031;840,660;641,024;-0,410;0,606;1,650;187,937;-377,937;-126,625;-0,875;-43,500;-12,562;104,438;-3,625;-57,688;38402494;33704738;1622;20,279;12
48,031;841,016;639,216;-0,255;0,206;0,549;180,062;-446,063;-174,000;3,188;-43,875;-0,562;141,562;-1,500;-73,500;38402494;33704738;1612;20,279;12
48,031;841,371;637,198;-0,262;0,342;0,532;75,125;-480,875;-192,937;17,750;-40,563;3,375;192,125;-9,563;-80,563;38402494;33704732;1610;20,279;12
48,014;841,575;635,150;-0,007;0,969;0,520;-14,500;-465,937;-143,500;29,188;-32,875;-11,688;239,625;-14,938;-72,313;38402496;33704725;1608;20,279;12
48,031;841,490;633,441;0,238;1,154;0,459;-62,375;-438,750;-91,312;19,250;-27,750;-31,187;273,812;-8,000;-59,625;38402498;33704717;1606;21,076;12
48,031;841,608;631,818;0,110;1,031;0,821;-65,688;-455,438;-27,625;6,375;-26,000;-38,250;299,250;9,500;-53,375;38402500;33704711;1605;21,020;12
48,031;841,963;629,990;0,426;1,277;0,578;106,313;-530,250;45,750;-20,687;-22,750;-32,688;319,750;34,000;-69,563;38402501;33704706;1605;20,931;12
48,031;841,845;628,528;0,421;0,887;-0,334;166,750;-481,062;-71,875;-42,000;-20,875;-0,250;348,437;31,500;-114,375;38402502;33704700;1605;20,715;12
48,031;841,963;627,134;-0,808;0,395;-0,332;47,812;-473,000;-110,813;-27,687;-17,000;32,875;66,750;-0,500;-132,625;38402502;33704700;1605;20,715;12
48,014;841,693;626,250;-0,841;0,216;0,186;-0,062;-346,812;-5,625;6,000;-15,875;42,187;142,500;-27,562;-126,812;38402506;33704688;1605;21,002;12
48,014;842,167;624,987;-0,292;0,158;-0,015;35,688;-302,875;58,437;26,187;-17,000;33,250;179,375;-39,125;-107,438;38402506;33704688;1597;21,002;12
48,031;842,674;623,333;-0,472;0,984;-1,531;26,562;-359,938;70,438;38,063;-18,750;15,375;201,000;-37,438;-87,562;38402508;33704672;1595;22,033;12
48,014;843,115;621,355;-1,725;0,702;-0,986;-16,375;-287,125;196,000;39,875;-21,250;3,875;212,062;-21,063;-71,938;38402508;33704672;1593;22,033;12
48,014;842,878;619,814;0,297;0,376;0,334;5,750;-167,500;323,563;28,875;-30,875;-17,875;199,875;8,000;-69,250;38402508;33704665;1591;22,033;12
48,014;842,760;618,594;2,642;1,124;0,314;118,437;-197,375;184,500;5,062;-41,500;-21,000;184,812;35,500;-79,250;38402509;33704659;1589;22,033;12
48,014;843,470;616,753;1,329;0,732;0,110;141,500;-100,563;-78,000;-13,187;-42,563;-11,250;184,187;38,375;-101,375;38402509;33704652;1587;21,900;12
48,014;843,589;614,952;0,205;0,244;0,074;121,875;-51,063;-168,687;-7,500;-43,688;-0,562;194,125;25,062;-113,250;38402508;33704645;1585;22,326;12
48,014;843,826;613,065;-0,517;0,552;-0,606;99,813;-60,813;-148,688;-1,250;-44,687;4,687;209,875;10,375;-122,313;38402508;33704638;1585;22,954;12
47,997;843,911;611,276;-0,733;0,465;-0,515;44,438;-125,625;-78,625;10,500;-40,375;12,500;234,938;-2,438;-128,250;38402508;33704638;1585;22,954;12
47,997;844,385;609,134;-0,763;0,552;-0,187;19,562;-111,688;1,250;19,250;-37,063;11,063;261,250;-11,750;-129,687;38402508;33704628;1585;24,558;12
48,014;844,063;607,594;-0,164;0,811;-0,220;28,062;-60,875;60,750;22,187;-36,375;8,875;273,750;-13,812;-129,937;38402508;33704628;1585;24,558;12
47,997;844,148;606,168;0,738;0,909;-0,397;29,937;-19,625;62,750;20,687;-38,188;8,375;285,500;-11,625;-131,187;38402508;33704614;1577;24,558;12
48,014;844,300;604,767;0,749;0,913;-0,701;-14,250;43,563;-6,062;17,000;-39,250;9,875;284,688;-9,000;-131,625;38402508;33704607;1575;23,880;12
47,997;844,740;603,049;0,600;0,665;-0,724;-61,125;106,813;-89,313;15,188;-39,688;9,750;280,937;-8,188;-129,187;38402508;33704600;1574;23,880;12
47,997;845,096;601,115;0,340;0,641;-0,631;-83,375;153,000;-140,687;19,250;-38,188;9,250;269,125;-9,375;-125,000;38402508;33704593;1572;23,552;12
47,997;845,333;599,101;0,117;0,667;-0,626;-88,688;199,938;-172,937;25,500;-34,188;10,563;252,500;-12,688;-121,313;38402509;33704584;1570;24,137;12
47,997;845,333;597,299;-0,030;0,781;-0,519;-71,813;239,188;-186,500;31,000;-27,562;17,250;233,187;-16,500;-120,750;38402509;33704577;1568;24,452;12
47,997;845,451;595,576;-0,296;0,918;-0,582;-42,625;280,500;-167,000;31,063;-24,375;22,187;207,750;-17,250;-124,500;38402511;33704570;1568;24,322;12
47,997;845,570;593,932;-0,390;1,041;-0,908;-37,688;313,375;-132,500;24,062;-17,375;33,250;170,437;-11,813;-129,062;38402511;33704563;1568;23,915;12
47,997;845,925;592,081;-0,238;1,252;-0,737;-67,000;387,062;-96,937;8,750;-15,875;42,187;116,312;-0,187;-127,438;38402512;33704556;1568;23,578;12
47,997;846,162;590,163;-0,322;0,952;0,193;-24,250;442,562;-78,188;-13,563;-20,000;37,188;46,313;16,187;-115,562;38402512;33704556;1568;23,578;12
47,997;846,280;588,324;-0,109;0,889;0,107;36,563;408,687;-14,313;-32,688;-25,500;18,187;2,000;24,500;-102,875;38402512;33704542;1568;23,320;12
47,980;845,773;587,327;-0,079;0,794;0,077;32,875;373,187;76,813;-36,000;-27,687;-6,687;324,000;31,500;-88,812;38402512;33704542;1559;23,320;12
47,997;846,280;585,915;0,475;0,775;0,439;-21,812;402,062;101,000;-28,250;-25,500;-24,000;291,875;33,000;-66,500;38402511;33704527;1559;23,891;12
47,997;846,636;584,286;0,317;0,809;1,140;-38,375;417,000;69,375;-22,187;-24,000;-33,375;267,938;18,250;-45,688;38402511;33704527;1555;23,891;12
47,997;846,636;582,843;-0,067;0,532;1,151;22,062;314,312;105,937;4,687;-20,687;-40,063;248,812;0,062;-41,188;38402511;33704520;1553;23,891;12
47,997;846,754;581,450;-0,054;0,465;0,824;33,000;314,500;154,312;23,375;-22,750;-32,063;226,812;-11,250;-46,938;38402509;33704513;1552;23,891;12
47,997;846,873;580,101;0,188;0,576;0,691;-4,937;364,375;163,500;29,875;-30,062;-15,375;198,562;-18,375;-57,000;38402507;33704507;1550;23,665;12
47,997;847,110;578,661;0,250;0,718;0,522;-54,500;413,063;120,625;27,000;-34,375;0,562;165,562;-23,062;-67,875;38402505;33704500;1548;23,719;12
47,997;847,228;577,259;0,062;0,796;0,330;-78,938;444,125;51,125;21,063;-38,500;6,375;130,062;-26,812;-79,625;38402501;33704494;1548;23,694;12
47,980;847,432;575,801;-0,377;0,810;-0,019;-76,188;398,875;16,500;7,375;-41,375;11,250;94,000;-27,187;-92,125;38402498;33704490;1548;22,844;12
47,980;847,787;574,120;-0,286;0,873;-0,079;-88,938;346,313;16,000;-1,750;-43,188;6,875;57,125;-22,125;-99,625;38402496;33704486;1548;21,928;12
47,997;848,294;572,045;-0,137;1,048;0,105;-85,250;349,875;0,687;-6,062;-43,250;-0,687;19,437;-15,813;-101,875;38402494;33704481;1548;21,122;12
47,997;848,413;570,002;0,118;1,253;0,227;-53,625;365,625;-21,375;-3,188;-43,688;-9,500;341,250;-10,125;-102,688;38402492;33704477;1548;20,463;12
47,980;848,735;567,776;0,258;0,988;0,218;-2,625;379,250;-27,562;0,500;-43,250;-11,688;302,000;-4,625;-104,625;38402492;33704477;1548;20,463;12
47,997;848,768;565,723;0,353;1,201;-0,008;36,813;353,187;-11,312;9,563;-43,563;-9,000;261,437;2,500;-107,125;38402490;33704473;1537;20,463;12
47,997;848,887;563,761;0,970;1,252;-0,269;44,625;314,937;-18,937;12,562;-42,187;0,375;222,625;10,438;-107,750;38402488;33704469;1535;19,131;12
47,997;848,887;562,044;0,644;1,017;0,174;77,563;262,250;-63,875;12,688;-40,250;11,063;192,187;14,063;-107,250;38402486;33704465;1533;18,609;12
47,997;849,242;560,131;0,140;0,832;-0,169;106,250;255,312;-35,500;9,000;-36,250;21,250;164,375;16,500;-109,750;38402485;33704462;1533;17,533;12
47,997;849,123;558,602;0,180;0,647;-0,367;73,250;260,562;19,750;3,750;-34,063;24,875;131,312;23,812;-110,187;38402485;33704458;1530;16,964;12
47,997;849,242;557,154;0,761;0,777;-0,228;-9,563;249,687;18,812;-15,188;-28,563;28,875;96,438;34,250;-98,875;38402484;33704453;1528;17,194;12
47,997;849,716;555,356;1,441;1,018;0,384;-16,062;200,313;-92,000;-22,187;-29,250;24,500;83,938;31,437;-83,187;38402484;33704449;1526;17,292;12
47,997;850,190;553,210;0,441;0,692;0,897;101,875;65,813;-191,750;-26,500;-33,375;13,250;87,812;16,312;-82,938;38402483;33704444;1526;17,466;12
47,997;850,427;550,992;-0,952;0,639;0,059;162,125;-24,500;-147,125;-19,562;-37,688;15,500;100,812;0,687;-95,375;38402482;33704439;1526;17,720;12
47,997;850,663;548,716;-1,429;0,643;-0,711;104,563;-147,125;-23,000;-7,500;-34,375;25,375;121,938;-7,937;-106,563;38402482;33704439;1526;17,720;12
47,997;850,663;546,694;-1,378;0,613;-0,966;50,375;-275,000;144,562;1,687;-29,750;32,063;142,875;-8,375;-109,750;38402482;33704439;1526;17,720;12
47,997;850,900;544,636;0,150;0,919;-1,691;42,938;-411,500;243,437;5,000;-28,687;32,563;168,562;-1,500;-110,500;38402479;33704428;1519;17,720;12
47,997;850,782;542,997;1,313;0,720;-1,772;-0,937;-616,312;163,125;13,375;-29,750;28,563;217,250;-1,562;-112,563;38402478;33704422;1517;17,720;12
47,997;851,137;541,165;0,538;0,416;-1,775;-71,875;-636,312;152,812;23,750;-35,688;10,188;283,062;-8,188;-103,438;38402477;33704416;1515;17,720;12
48,014;851,289;539,391;0,712;0,345;-1,393;-89,437;-521,500;238,125;10,875;-42,250;-17,250;319,562;3,375;-91,625;38402476;33704410;1513;17,720;12
48,014;851,526;537,568;1,668;0,507;-1,408;-43,500;-659,125;216,188;-22,062;-37,063;-14,500;347,250;19,875;-96,312;38402475;33704403;1511;19,415;12
47,997;851,611;535,879;0,941;0,393;-0,839;12,313;-709,438;164,625;-33,375;-31,187;0,562;47,063;17,375;-119,250;38402474;33704397;1509;19,963;12
48,014;851,881;534,094;0,369;0,607;-1,326;9,000;-598,125;124,188;-20,250;-21,688;36,563;144,687;-6,312;-127,375;38402472;33704392;1509;20,100;12
48,014;852,000;532,394;0,101;0,240;-0,873;-22,687;-433,125;148,875;17,062;-18,375;35,563;208,375;-20,250;-114,813;38402470;33704386;1509;20,046;12
48,014;852,355;530,494;0,603;0,621;-1,113;-48,813;-378,125;159,750;32,188;-26,750;15,062;236,375;-17,250;-98,750;38402468;33704381;1509;19,863;12
47,997;852,440;528,716;1,165;0,810;-0,804;-54,687;-446,500;143,062;26,688;-34,875;-7,500;257,625;-5,000;-86,562;38402466;33704376;1509;19,440;12
48,014;852,592;526,983;1,491;0,871;-0,703;-40,875;-563,000;71,813;17,062;-38,563;-18,187;287,875;8,688;-84,437;38402466;33704376;1509;19,440;12
47,997;852,677;525,373;1,061;0,830;-0,538;-68,000;-574,875;37,938;-8,500;-39,250;-22,562;331,437;15,250;-91,375;38402463;33704372;1500;19,440;12
47,997;852,914;523,699;1,391;1,032;0,155;-62,375;-587,875;43,875;-28,250;-36,000;-6,562;22,500;14,313;-98,625;38402460;33704368;1498;19,440;12
47,997;853,151;521,959;1,347;0,976;0,013;-36,250;-627,250;11,250;-25,750;-32,250;20,562;84,687;6,000;-104,438;38402458;33704364;1496;17,972;12
47,997;853,388;520,154;0,967;0,805;0,600;-64,188;-614,687;-13,250;2,000;-32,000;28,875;180,312;-10,875;-93,250;38402455;33704360;1494;17,961;12
48,014;853,421;518,524;1,221;0,829;0,707;-13,688;-636,750;-23,250;25,562;-36,375;-6,562;245,125;-3,938;-76,813;38402451;33704351;1491;17,692;12
47,997;853,625;516,867;1,130;0,858;0,613;-11,188;-600,063;-86,375;20,750;-35,688;-19,500;292,375;3,875;-76,625;38402451;33704351;1491;17,692;12
47,997;853,743;515,281;0,955;1,038;1,428;-23,563;-638,125;-96,250;-3,688;-36,000;-29,250;344,250;6,625;-79,750;38402450;33704347;1489;17,692;12
47,997;853,862;513,762;0,713;0,692;0,918;-9,000;-634,438;-113,688;-24,250;-37,750;-14,188;42,250;4,812;-85,312;38402448;33704343;1487;17,692;12
47,997;854,099;512,169;0,157;1,063;1,140;-15,563;-681,875;-76,000;-19,500;-38,875;8,875;104,250;0,000;-85,875;38402446;33704340;1485;17,692;12
48,014;854,369;510,463;0,544;1,021;1,347;64,375;-721,875;-37,750;4,250;-39,563;16,375;166,625;0,125;-88,000;38402443;33704336;1483;16,249;12
48,014;854,488;508,817;0,425;0,742;0,583;71,375;-681,313;-107,250;15,000;-39,250;12,875;234,562;-7,312;-92,375;38402443;33704333;1481;15,351;12
47,997;854,454;507,409;0,263;0,460;0,714;-2,938;-686,000;-105,062;25,187;-36,375;-8,375;301,875;-15,500;-81,562;38402442;33704329;1481;15,016;12
48,014;854,606;506,016;0,427;0,625;1,034;-6,062;-622,000;-60,813;7,562;-34,188;-31,500;350,375;-6,250;-68,125;38402440;33704326;1481;14,525;12
48,014;854,725;504,673;0,559;0,721;0,771;8,250;-561,250;-72,875;-19,500;-34,875;-21,750;30,125;7,875;-69,438;38402437;33704324;1481;14,023;12
48,014;855,080;503,112;0,446;0,741;0,633;-3,875;-556,500;-71,375;-26,750;-36,250;2,563;72,375;14,625;-79,750;38402435;33704322;1481;13,423;12
48,014;855,198;501,594;0,614;0,772;0,686;4,250;-558,063;-62,438;-22,062;-37,375;12,750;122,625;12,375;-92,313;38402435;33704322;1474;13,423;12
47,997;855,402;500,028;0,495;0,667;0,383;-3,563;-520,312;-74,500;0,687;-36,688;22,187;180,125;1,312;-98,500;38402434;33704318;1471;13,423;12
47,997;855,520;498,506;0,257;0,735;0,398;-29,813;-507,750;-64,750;22,000;-35,563;10,188;236,125;-10,188;-93,125;38402433;33704316;1469;13,423;12
48,014;855,909;496,731;0,099;0,768;0,518;-16,812;-492,312;-27,562;26,250;-34,750;-14,250;280,375;-11,937;-81,438;38402432;33704314;1468;13,423;12
48,014;856,028;495,003;0,121;0,886;0,653;27,250;-450,375;-15,813;9,063;-34,750;-29,250;314,562;-5,000;-75,875;38402430;33704312;1466;13,423;12
48,014;856,146;493,329;-0,109;1,047;0,411;57,063;-454,750;-18,750;-2,188;-35,875;-29,750;347,188;2,375;-79,000;38402429;33704309;1464;11,394;12
47,997;856,350;491,616;-0,250;0,952;0,518;79,062;-468,375;-12,688;-20,875;-37,688;-15,875;24,188;5,750;-88,187;38402427;33704306;1464;11,529;12
48,014;856,620;489,790;-0,264;0,839;0,377;113,938;-449,937;-19,437;-25,000;-36,688;6,187;67,250;1,687;-99,938;38402426;33704303;1464;11,342;12
48,014;856,620;488,166;-0,502;0,728;0,014;108,938;-485,750;-32,500;-9,188;-33,375;28,375;136,500;-14,250;-107,688;38402426;33704301;1464;10,593;12
48,014;856,620;486,744;-0,535;0,680;0,130;87,938;-518,125;-12,000;16,750;-27,187;29,250;194,312;-27,313;-99,375;38402424;33704300;1457;10,208;12
47,997;856,705;485,419;-0,435;0,794;0,186;89,813;-537,875;17,312;35,750;-23,875;8,063;238,437;-27,437;-81,813;38402422;33704297;1457;10,684;12
48,014;857,094;483,840;-0,142;0,790;0,084;98,437;-568,687;18,625;31,500;-28,250;-20,750;274,375;-13,688;-71,938;38402421;33704293;1453;11,297;12
47,997;857,297;482,215;-0,288;0,992;0,130;94,125;-588,063;0,812;18,250;-31,562;-29,750;311,375;1,750;-75,688;38402419;33704290;1453;11,490;12
48,014;857,568;480,472;-0,070;0,996;0,150;100,812;-563,875;-0,375;-11,500;-36,375;-26,187;354,062;8,813;-89,625;38402419;33704290;1453;11,490;12
48,014;857,568;478,916;-0,163;0,966;0,020;91,063;-563,938;-24,188;-26,187;-36,750;2,188;49,375;1,437;-103,563;38402419;33704290;1453;11,490;12
48,014;857,686;477,417;-0,564;0,857;0,325;73,750;-547,500;-10,313;-11,188;-34,188;26,187;116,063;-13,563;-105,500;38402417;33704284;1448;11,490;12
48,014;857,923;475,838;-0,737;0,731;0,421;104,250;-463,312;30,125;16,000;-30,500;27,187;168,750;-21,875;-98,812;38402416;33704282;1446;11,490;12
47,997;858,126;474,217;-0,795;0,727;0,017;147,250;-439,000;57,187;24,375;-29,000;21,375;208,625;-21,937;-94,313;38402414;33704278;1444;11,288;12
48,014;858,397;472,478;-0,713;0,636;-0,228;168,687;-490,625;58,313;32,875;-28,250;5,375;249,000;-19,187;-92,938;38402413;33704275;1442;11,353;12
48,014;858,515;470,795;-0,765;0,641;-0,252;167,125;-543,625;52,625;27,375;-33,750;-12,750;294,125;-16,687;-92,875;38402414;33704272;1442;10,942;12
47,997;858,482;469,345;-0,816;0,748;0,076;179,687;-541,312;49,250;10,062;-41,188;-19,875;342,625;-14,938;-94,250;38402414;33704270;1442;10,321;12
48,014;858,397;468,180;-0,568;0,729;0,068;198,312;-483,625;4,937;-5,687;-44,062;-5,562;32,563;-17,375;-98,750;38402414;33704268;1442;9,819;12
47,997;858,363;467,219;-0,847;0,670;0,328;185,437;-441,625;-35,250;-7,500;-44,062;3,250;85,438;-26,125;-100,000;38402414;33704268;1436;9,819;12
47,997;858,363;466,400;-1,029;0,573;0,604;194,187;-395,687;-34,000;3,688;-39,000;18,750;133,250;-34,375;-95,500;38402414;33704268;1436;9,819;12
48,014;858,752;465,307;-1,053;0,422;0,664;214,125;-360,813;-30,375;21,375;-31,250;22,750;174,125;-38,438;-89,000;38402410;33704265;1433;9,819;12
48,014;859,226;463,870;-1,184;0,274;0,408;231,500;-355,125;-18,750;35,563;-23,875;15,250;210,625;-38,688;-83,812;38402409;33704263;1431;9,819;12
47,997;859,548;462,237;-1,254;0,283;0,183;245,000;-439,187;5,687;41,500;-20,000;0,187;246,437;-33,938;-79,313;38402408;33704260;1429;9,819;12
47,997;859,785;460,493;-1,116;0,351;0,172;248,812;-526,375;-13,875;37,063;-21,750;-12,250;286,187;-25,000;-77,125;38402409;33704257;1427;8,832;12
47,997;860,140;458,515;-1,136;0,481;0,192;219,063;-633,812;-47,250;9,000;-36,375;-26,063;344,625;-15,750;-80,250;38402409;33704255;1425;8,566;12
48,014;860,411;456,392;-1,282;0,575;0,660;195,375;-646,000;-46,250;-4,250;-40,750;-22,500;40,688;-12,313;-84,250;38402408;33704253;1423;8,130;12
48,014;860,292;454,582;-1,228;0,617;0,337;200,875;-555,375;-23,437;-11,875;-44,062;3,688;95,375;-12,562;-90,125;38402407;33704252;1421;7,986;12
48,014;860,529;452,704;-0,852;0,687;0,027;180,125;-603,875;-18,875;3,500;-37,500;21,063;152,250;-16,750;-94,188;38402407;33704248;1419;8,347;12
48,014;860,648;450,898;-0,718;0,700;0,027;130,562;-675,500;-16,500;27,375;-31,250;14,875;213,312;-20,562;-88,125;38402406;33704245;1417;8,717;12
47,997;860,969;448,931;-0,807;0,674;0,251;114,562;-670,312;18,625;30,250;-31,250;-14,875;266,188;-13,000;-79,062;38402407;33704242;1417;8,582;12
48,014;861,003;447,146;-1,023;0,627;0,139;154,875;-604,625;61,125;16,687;-34,500;-26,000;309,688;-0,062;-84,625;38402409;33704240;1414;8,238;12
48,014;861,122;445,447;-1,022;0,544;-0,279;213,125;-577,250;78,688;-12,688;-40,750;-19,250;356,250;3,250;-103,563;38402409;33704240;1414;8,238;12
48,014;860,766;444,391;-1,343;0,414;-0,206;249,125;-627,875;46,813;-20,687;-36,000;15,750;73,938;-12,750;-121,500;38402409;33704240;1414;8,238;12
48,014;860,529;443,777;-1,621;0,500;-0,020;257,625;-586,188;29,437;5,687;-23,563;38,063;166,687;-39,063;-121,000;38402410;33704236;1410;8,238;12
48,014;861,003;442,770;-1,192;0,877;-0,158;238,938;-685,813;0,250;39,750;-11,563;20,562;229,000;-52,187;-83,563;38402410;33704234;1408;8,238;12
47,997;861,799;441,083;-0,517;0,630;0,534;163,312;-748,062;-53,250;43,875;-10,062;-2,375;271,000;-24,250;-48,563;38402410;33704231;1406;8,238;12
48,014;861,832;439,501;-0,152;0,438;0,887;113,625;-658,938;-64,125;14,500;-17,750;-38,875;304,500;10,750;-54,875;38402410;33704228;1404;7,997;12
48,014;862,306;437,570;0,351;0,283;0,537;105,125;-607,312;-81,500;-27,250;-26,750;-25,187;343,562;25,438;-84,813;38402410;33704225;1402;8,432;12
47,997;862,391;435,704;0,264;0,239;0,210;51,375;-572,625;-126,438;-32,875;-29,687;13,875;45,750;8,625;-108,625;38402411;33704222;1400;8,391;12
48,014;862,069;434,382;-0,247;0,470;0,243;-29,062;-585,062;-105,500;-1,250;-30,062;32,000;126,500;-18,250;-105,062;38402412;33704219;1400;8,491;12
47,997;862,391;432,884;-0,719;0,897;0,932;-37,500;-636,375;37,438;14,875;-30,750;25,250;178,250;-23,000;-77,938;38402412;33704219;1398;8,491;12
47,997;862,983;430,911;0,033;1,131;0,666;124,063;-544,250;115,437;28,375;-34,063;-5,250;206,250;1,250;-71,875;38402412;33704219;1398;8,491;12
48,014;863,017;429,079;0,603;1,602;-0,273;199,312;-530,875;5,000;10,750;-40,688;-18,562;238,000;12,875;-95,250;38402412;33704214;1394;8,491;12
48,014;863,491;426,901;-0,194;1,179;-0,682;102,937;-496,687;-118,000;-0,500;-44,375;-6,562;301,562;-5,312;-113,125;38402412;33704214;1394;8,491;12
47,997;863,220;425,248;-0,317;0,627;0,168;-38,313;-429,250;-77,375;7,062;-43,563;-3,063;22,938;-34,563;-95,500;38402412;33704214;1394;8,491;12
48,014;863,491;423,496;-0,064;0,089;0,329;-44,000;-413,125;-27,000;8,188;-42,500;-11,750;50,875;-33,000;-66,188;38402412;33704214;1394;8,491;12
48,014;863,491;421,963;-0,052;0,854;0,669;-31,312;-422,875;14,000;-0,500;-43,000;-19,250;68,437;-12,625;-48,625;38402414;33704201;1386;8,491;12
48,014;863,846;420,227;-0,194;0,747;0,761;27,250;-384,313;44,375;-12,250;-41,500;-13,063;80,438;12,875;-48,313;38402415;33704200;1384;8,491;12
48,014;863,846;418,700;-0,044;0,749;0,724;118,750;-396,875;64,625;-19,562;-41,063;-8,563;90,062;35,938;-66,938;38402415;33704197;1382;8,491;12
48,014;863,965;417,241;0,317;0,783;0,007;186,750;-406,187;2,500;-22,875;-37,000;13,063;103,125;40,375;-111,125;38402416;33704193;1380;9,545;12
48,014;864,202;415,707;-0,191;0,670;-0,961;107,125;-382,500;-88,625;-7,500;-28,250;33,875;13,313;16,500;-139,187;38402417;33704188;1379;10,151;12
48,014;864,676;413,832;-0,477;0,577;-1,185;-44,125;-382,812;-53,750;20,375;-20,687;33,375;17,687;-14,563;-141,500;38402418;33704185;1377;10,358;12
48,014;864,676;412,150;-0,406;0,480;-1,027;-151,813;-321,313;65,188;38,375;-20,375;12,188;284,313;-34,188;-120,625;38402418;33704182;1375;10,343;12
47,997;864,997;410,301;0,260;0,276;-0,221;-165,875;-349,125;164,875;38,000;-23,563;-2,000;291,812;-30,062;-85,500;38402420;33704178;1375;10,664;12
47,997;865,708;407,835;1,452;1,001;0,261;-87,063;-377,437;200,062;23,687;-29,500;-29,188;294,063;-4,812;-65,125;38402420;33704178;1375;10,664;12
47,997;865,353;405,999;1,415;0,760;-0,195;-22,062;-305,375;73,125;-7,187;-27,250;-37,563;301,500;19,000;-65,000;38402421;33704173;1371;10,664;12
47,997;865,589;404,117;0,838;0,841;-0,316;-65,875;-209,875;-22,375;-29,500;-23,187;-27,250;314,937;28,312;-70,312;38402424;33704167;1369;10,664;12
47,997;865,826;402,189;0,398;1,042;0,968;-78,063;-173,437;-29,813;-35,250;-21,375;-16,687;330,875;30,750;-72,063;38402427;33704155;1367;14,284;12
47,997;865,945;400,358;0,444;0,849;1,258;0,125;-168,125;-26,437;-39,500;-19,875;-13,563;344,562;32,875;-77,625;38402427;33704155;1365;14,284;12
47,997;865,945;398,768;0,526;0,768;0,840;92,625;-55,250;-79,250;-41,688;-21,063;-2,063;354,187;29,562;-88,812;38402428;33704152;1363;14,105;12
47,997;866,656;396,561;0,237;0,863;-0,307;132,500;30,062;-117,625;-39,000;-25,500;4,500;2,875;20,625;-99,000;38402429;33704147;1361;14,157;12
